"Subject"	"mapping"	"Condition"	"Trial"	"TrialType"	"CueType"	"ProbeType"	"feedduration"	"Probe.ACC"	"Probe.RT"	"race"
9	"RightGun"	"BlackHisp"	2	"HispGun"	"hispFace1.bmp"	"WEAPON1.bmp"	1000	1	557	"white"
9	"RightGun"	"BlackHisp"	2	"HispGun"	"hispFace2.bmp"	"WEAPON4.bmp"	500	1	376	"white"
9	"RightGun"	"BlackHisp"	2	"BlackTool"	"BlackFace3.bmp"	"TOOL3.bmp"	500	1	487	"white"
9	"RightGun"	"BlackHisp"	2	"HispTool"	"hispFace3.bmp"	"TOOL1.bmp"	500	0	351	"white"
9	"RightGun"	"BlackHisp"	2	"HispGun"	"hispFace4.bmp"	"WEAPON3.bmp"	500	1	391	"white"
9	"RightGun"	"BlackHisp"	2	"HispGun"	"hispFace1.bmp"	"WEAPON2.bmp"	1000	1	567	"white"
9	"RightGun"	"BlackHisp"	2	"HispGun"	"hispFace2.bmp"	"WEAPON1.bmp"	500	1	482	"white"
9	"RightGun"	"BlackHisp"	2	"HispTool"	"hispFace3.bmp"	"TOOL4.bmp"	1000	1	586	"white"
9	"RightGun"	"BlackHisp"	2	"HispTool"	"hispFace4.bmp"	"TOOL2.bmp"	500	1	437	"white"
9	"RightGun"	"BlackHisp"	2	"BlackTool"	"BlackFace1.bmp"	"TOOL2.bmp"	500	0	381	"white"
9	"RightGun"	"BlackHisp"	2	"HispTool"	"hispFace1.bmp"	"TOOL4.bmp"	1000	1	501	"white"
9	"RightGun"	"BlackHisp"	2	"HispTool"	"hispFace2.bmp"	"TOOL3.bmp"	500	1	449	"white"
9	"RightGun"	"BlackHisp"	2	"BlackTool"	"BlackFace2.bmp"	"TOOL1.bmp"	1000	1	537	"white"
9	"RightGun"	"BlackHisp"	2	"BlackTool"	"BlackFace4.bmp"	"TOOL3.bmp"	500	1	460	"white"
9	"RightGun"	"BlackHisp"	2	"BlackGun"	"BlackFace2.bmp"	"WEAPON2.bmp"	500	1	396	"white"
9	"RightGun"	"BlackHisp"	2	"HispGun"	"hispFace3.bmp"	"WEAPON3.bmp"	500	1	484	"white"
9	"RightGun"	"BlackHisp"	2	"HispTool"	"hispFace4.bmp"	"TOOL4.bmp"	500	1	372	"white"
9	"RightGun"	"BlackHisp"	2	"BlackTool"	"BlackFace3.bmp"	"TOOL1.bmp"	1000	1	571	"white"
9	"RightGun"	"BlackHisp"	2	"BlackGun"	"BlackFace1.bmp"	"WEAPON4.bmp"	1000	1	503	"white"
9	"RightGun"	"BlackHisp"	2	"HispGun"	"hispFace1.bmp"	"WEAPON3.bmp"	500	1	419	"white"
9	"RightGun"	"BlackHisp"	2	"BlackTool"	"BlackFace4.bmp"	"TOOL2.bmp"	500	1	475	"white"
9	"RightGun"	"BlackHisp"	2	"BlackTool"	"BlackFace3.bmp"	"TOOL4.bmp"	1000	1	507	"white"
9	"RightGun"	"BlackHisp"	2	"BlackGun"	"BlackFace4.bmp"	"WEAPON2.bmp"	500	1	358	"white"
9	"RightGun"	"BlackHisp"	2	"HispGun"	"hispFace2.bmp"	"WEAPON1.bmp"	500	0	414	"white"
9	"RightGun"	"BlackHisp"	2	"HispGun"	"hispFace3.bmp"	"WEAPON4.bmp"	500	1	478	"white"
9	"RightGun"	"BlackHisp"	2	"BlackGun"	"BlackFace2.bmp"	"WEAPON1.bmp"	500	0	390	"white"
9	"RightGun"	"BlackHisp"	2	"BlackTool"	"BlackFace1.bmp"	"TOOL2.bmp"	500	0	407	"white"
9	"RightGun"	"BlackHisp"	2	"HispTool"	"hispFace4.bmp"	"TOOL3.bmp"	500	1	439	"white"
9	"RightGun"	"BlackHisp"	2	"HispTool"	"hispFace1.bmp"	"TOOL1.bmp"	1000	1	543	"white"
9	"RightGun"	"BlackHisp"	2	"BlackGun"	"BlackFace1.bmp"	"WEAPON2.bmp"	500	1	338	"white"
9	"RightGun"	"BlackHisp"	2	"HispGun"	"hispFace2.bmp"	"WEAPON4.bmp"	500	0	274	"white"
9	"RightGun"	"BlackHisp"	2	"BlackGun"	"BlackFace4.bmp"	"WEAPON3.bmp"	1000	1	546	"white"
9	"RightGun"	"BlackHisp"	2	"HispTool"	"hispFace3.bmp"	"TOOL2.bmp"	500	1	428	"white"
9	"RightGun"	"BlackHisp"	2	"HispTool"	"hispFace4.bmp"	"TOOL1.bmp"	1000	1	508	"white"
9	"RightGun"	"BlackHisp"	2	"BlackGun"	"BlackFace2.bmp"	"WEAPON1.bmp"	500	1	360	"white"
9	"RightGun"	"BlackHisp"	2	"BlackTool"	"BlackFace3.bmp"	"TOOL3.bmp"	500	1	368	"white"
9	"RightGun"	"BlackHisp"	2	"BlackGun"	"BlackFace1.bmp"	"WEAPON2.bmp"	1000	1	560	"white"
9	"RightGun"	"BlackHisp"	2	"BlackTool"	"BlackFace2.bmp"	"TOOL4.bmp"	500	1	436	"white"
9	"RightGun"	"BlackHisp"	2	"BlackTool"	"BlackFace3.bmp"	"TOOL3.bmp"	500	1	476	"white"
9	"RightGun"	"BlackHisp"	2	"BlackGun"	"BlackFace4.bmp"	"WEAPON4.bmp"	500	1	316	"white"
9	"RightGun"	"BlackHisp"	2	"HispGun"	"hispFace1.bmp"	"WEAPON3.bmp"	500	0	444	"white"
9	"RightGun"	"BlackHisp"	2	"HispGun"	"hispFace2.bmp"	"WEAPON4.bmp"	500	1	492	"white"
9	"RightGun"	"BlackHisp"	2	"HispTool"	"hispFace3.bmp"	"TOOL2.bmp"	500	1	467	"white"
9	"RightGun"	"BlackHisp"	2	"BlackGun"	"BlackFace3.bmp"	"WEAPON1.bmp"	500	1	419	"white"
9	"RightGun"	"BlackHisp"	2	"BlackGun"	"BlackFace1.bmp"	"WEAPON2.bmp"	500	1	483	"white"
9	"RightGun"	"BlackHisp"	2	"HispTool"	"hispFace4.bmp"	"TOOL1.bmp"	500	1	379	"white"
9	"RightGun"	"BlackHisp"	2	"HispGun"	"hispFace1.bmp"	"WEAPON3.bmp"	500	1	410	"white"
9	"RightGun"	"BlackHisp"	2	"BlackGun"	"BlackFace2.bmp"	"WEAPON2.bmp"	500	0	362	"white"
9	"RightGun"	"BlackHisp"	2	"BlackTool"	"BlackFace4.bmp"	"TOOL4.bmp"	1000	1	514	"white"
9	"RightGun"	"BlackHisp"	2	"HispGun"	"hispFace2.bmp"	"WEAPON4.bmp"	500	1	293	"white"
9	"RightGun"	"BlackHisp"	2	"HispTool"	"hispFace3.bmp"	"TOOL4.bmp"	500	1	422	"white"
9	"RightGun"	"BlackHisp"	2	"BlackGun"	"BlackFace4.bmp"	"WEAPON3.bmp"	500	1	494	"white"
9	"RightGun"	"BlackHisp"	2	"BlackTool"	"BlackFace3.bmp"	"TOOL3.bmp"	500	1	422	"white"
9	"RightGun"	"BlackHisp"	2	"BlackGun"	"BlackFace2.bmp"	"WEAPON1.bmp"	500	1	382	"white"
9	"RightGun"	"BlackHisp"	2	"HispTool"	"hispFace4.bmp"	"TOOL2.bmp"	500	1	470	"white"
9	"RightGun"	"BlackHisp"	2	"HispGun"	"hispFace1.bmp"	"WEAPON3.bmp"	500	1	454	"white"
9	"RightGun"	"BlackHisp"	2	"BlackGun"	"BlackFace1.bmp"	"WEAPON2.bmp"	500	1	486	"white"
9	"RightGun"	"BlackHisp"	2	"BlackTool"	"BlackFace3.bmp"	"TOOL1.bmp"	1000	1	510	"white"
9	"RightGun"	"BlackHisp"	2	"BlackTool"	"BlackFace4.bmp"	"TOOL2.bmp"	500	1	497	"white"
9	"RightGun"	"BlackHisp"	2	"BlackGun"	"BlackFace1.bmp"	"WEAPON4.bmp"	500	1	385	"white"
9	"RightGun"	"BlackHisp"	2	"HispTool"	"hispFace2.bmp"	"TOOL1.bmp"	1000	1	514	"white"
9	"RightGun"	"BlackHisp"	2	"HispTool"	"hispFace3.bmp"	"TOOL4.bmp"	500	1	486	"white"
9	"RightGun"	"BlackHisp"	2	"HispGun"	"hispFace4.bmp"	"WEAPON1.bmp"	500	1	485	"white"
9	"RightGun"	"BlackHisp"	2	"BlackTool"	"BlackFace2.bmp"	"TOOL3.bmp"	500	1	469	"white"
9	"RightGun"	"BlackHisp"	2	"BlackTool"	"BlackFace1.bmp"	"TOOL3.bmp"	500	1	415	"white"
9	"RightGun"	"BlackHisp"	2	"BlackGun"	"BlackFace4.bmp"	"WEAPON3.bmp"	500	1	439	"white"
9	"RightGun"	"BlackHisp"	2	"BlackTool"	"BlackFace2.bmp"	"TOOL4.bmp"	500	1	447	"white"
9	"RightGun"	"BlackHisp"	2	"HispGun"	"hispFace1.bmp"	"WEAPON4.bmp"	500	1	415	"white"
9	"RightGun"	"BlackHisp"	2	"HispGun"	"hispFace2.bmp"	"WEAPON1.bmp"	500	1	359	"white"
9	"RightGun"	"BlackHisp"	2	"BlackGun"	"BlackFace3.bmp"	"WEAPON2.bmp"	500	1	303	"white"
9	"RightGun"	"BlackHisp"	2	"HispTool"	"hispFace3.bmp"	"TOOL1.bmp"	500	1	455	"white"
9	"RightGun"	"BlackHisp"	2	"HispGun"	"hispFace4.bmp"	"WEAPON2.bmp"	500	1	455	"white"
9	"RightGun"	"BlackHisp"	2	"HispTool"	"hispFace1.bmp"	"TOOL2.bmp"	1000	0	0	"white"
9	"RightGun"	"BlackHisp"	2	"BlackTool"	"BlackFace3.bmp"	"TOOL2.bmp"	1000	0	0	"white"
9	"RightGun"	"BlackHisp"	2	"BlackTool"	"BlackFace1.bmp"	"TOOL3.bmp"	500	1	438	"white"
9	"RightGun"	"BlackHisp"	2	"HispGun"	"hispFace2.bmp"	"WEAPON4.bmp"	500	1	318	"white"
9	"RightGun"	"BlackHisp"	2	"BlackGun"	"BlackFace2.bmp"	"WEAPON3.bmp"	500	1	390	"white"
9	"RightGun"	"BlackHisp"	2	"BlackTool"	"BlackFace4.bmp"	"TOOL4.bmp"	500	0	301	"white"
9	"RightGun"	"BlackHisp"	2	"BlackTool"	"BlackFace4.bmp"	"TOOL1.bmp"	1000	1	549	"white"
9	"RightGun"	"BlackHisp"	2	"HispGun"	"hispFace3.bmp"	"WEAPON1.bmp"	500	1	377	"white"
9	"RightGun"	"BlackHisp"	2	"HispTool"	"hispFace4.bmp"	"TOOL1.bmp"	1000	1	553	"white"
9	"RightGun"	"BlackHisp"	2	"HispGun"	"hispFace1.bmp"	"WEAPON1.bmp"	500	1	412	"white"
9	"RightGun"	"BlackHisp"	2	"BlackTool"	"BlackFace1.bmp"	"TOOL2.bmp"	500	1	420	"white"
9	"RightGun"	"BlackHisp"	2	"HispGun"	"hispFace2.bmp"	"WEAPON2.bmp"	500	1	364	"white"
9	"RightGun"	"BlackHisp"	2	"BlackTool"	"BlackFace2.bmp"	"TOOL3.bmp"	500	1	388	"white"
9	"RightGun"	"BlackHisp"	2	"BlackTool"	"BlackFace3.bmp"	"TOOL4.bmp"	500	0	420	"white"
9	"RightGun"	"BlackHisp"	2	"BlackGun"	"BlackFace3.bmp"	"WEAPON3.bmp"	500	1	388	"white"
9	"RightGun"	"BlackHisp"	2	"BlackTool"	"BlackFace1.bmp"	"TOOL3.bmp"	500	1	348	"white"
9	"RightGun"	"BlackHisp"	2	"BlackTool"	"BlackFace4.bmp"	"TOOL2.bmp"	1000	1	540	"white"
9	"RightGun"	"BlackHisp"	2	"BlackTool"	"BlackFace2.bmp"	"TOOL1.bmp"	500	1	303	"white"
9	"RightGun"	"BlackHisp"	2	"HispTool"	"hispFace3.bmp"	"TOOL4.bmp"	500	0	303	"white"
9	"RightGun"	"BlackHisp"	2	"HispTool"	"hispFace4.bmp"	"TOOL1.bmp"	500	1	207	"white"
9	"RightGun"	"BlackHisp"	2	"BlackTool"	"BlackFace2.bmp"	"TOOL3.bmp"	500	0	374	"white"
9	"RightGun"	"BlackHisp"	2	"HispTool"	"hispFace1.bmp"	"TOOL2.bmp"	500	1	478	"white"
9	"RightGun"	"BlackHisp"	2	"HispGun"	"hispFace2.bmp"	"WEAPON4.bmp"	500	1	406	"white"
9	"RightGun"	"BlackHisp"	2	"HispTool"	"hispFace3.bmp"	"TOOL4.bmp"	500	1	430	"white"
9	"RightGun"	"BlackHisp"	3	"BlackGun"	"BlackFace3.bmp"	"WEAPON2.bmp"	1000	1	554	"white"
9	"RightGun"	"BlackHisp"	3	"BlackGun"	"BlackFace4.bmp"	"WEAPON4.bmp"	500	1	357	"white"
9	"RightGun"	"BlackHisp"	3	"BlackGun"	"BlackFace1.bmp"	"WEAPON3.bmp"	500	0	349	"white"
9	"RightGun"	"BlackHisp"	3	"HispTool"	"hispFace4.bmp"	"TOOL2.bmp"	500	1	437	"white"
9	"RightGun"	"BlackHisp"	3	"HispTool"	"hispFace1.bmp"	"TOOL3.bmp"	1000	1	621	"white"
9	"RightGun"	"BlackHisp"	3	"HispGun"	"hispFace2.bmp"	"WEAPON1.bmp"	500	0	401	"white"
9	"RightGun"	"BlackHisp"	3	"BlackGun"	"BlackFace4.bmp"	"WEAPON2.bmp"	500	1	425	"white"
9	"RightGun"	"BlackHisp"	3	"BlackTool"	"BlackFace1.bmp"	"TOOL4.bmp"	500	1	401	"white"
9	"RightGun"	"BlackHisp"	3	"HispGun"	"hispFace3.bmp"	"WEAPON1.bmp"	500	1	409	"white"
9	"RightGun"	"BlackHisp"	3	"HispTool"	"hispFace4.bmp"	"TOOL1.bmp"	1000	1	511	"white"
9	"RightGun"	"BlackHisp"	3	"BlackGun"	"BlackFace3.bmp"	"WEAPON4.bmp"	500	1	427	"white"
9	"RightGun"	"BlackHisp"	3	"BlackGun"	"BlackFace2.bmp"	"WEAPON3.bmp"	500	1	395	"white"
9	"RightGun"	"BlackHisp"	3	"BlackGun"	"BlackFace2.bmp"	"WEAPON3.bmp"	500	1	403	"white"
9	"RightGun"	"BlackHisp"	3	"HispGun"	"hispFace1.bmp"	"WEAPON2.bmp"	500	1	395	"white"
9	"RightGun"	"BlackHisp"	3	"HispGun"	"hispFace2.bmp"	"WEAPON4.bmp"	500	1	283	"white"
9	"RightGun"	"BlackHisp"	3	"HispTool"	"hispFace3.bmp"	"TOOL2.bmp"	500	0	251	"white"
9	"RightGun"	"BlackHisp"	3	"BlackGun"	"BlackFace4.bmp"	"WEAPON1.bmp"	500	0	363	"white"
9	"RightGun"	"BlackHisp"	3	"BlackGun"	"BlackFace3.bmp"	"WEAPON4.bmp"	500	1	363	"white"
9	"RightGun"	"BlackHisp"	3	"BlackGun"	"BlackFace1.bmp"	"WEAPON1.bmp"	500	1	267	"white"
9	"RightGun"	"BlackHisp"	3	"HispTool"	"hispFace4.bmp"	"TOOL4.bmp"	500	0	275	"white"
9	"RightGun"	"BlackHisp"	3	"BlackTool"	"BlackFace4.bmp"	"TOOL3.bmp"	500	1	259	"white"
9	"RightGun"	"BlackHisp"	3	"HispGun"	"hispFace1.bmp"	"WEAPON3.bmp"	500	0	355	"white"
9	"RightGun"	"BlackHisp"	3	"HispGun"	"hispFace2.bmp"	"WEAPON2.bmp"	500	1	163	"white"
9	"RightGun"	"BlackHisp"	3	"BlackGun"	"BlackFace3.bmp"	"WEAPON1.bmp"	500	1	251	"white"
9	"RightGun"	"BlackHisp"	3	"HispGun"	"hispFace3.bmp"	"WEAPON3.bmp"	500	1	347	"white"
9	"RightGun"	"BlackHisp"	3	"BlackTool"	"BlackFace2.bmp"	"TOOL1.bmp"	500	0	234	"white"
9	"RightGun"	"BlackHisp"	3	"HispTool"	"hispFace4.bmp"	"TOOL1.bmp"	500	1	250	"white"
9	"RightGun"	"BlackHisp"	3	"HispGun"	"hispFace1.bmp"	"WEAPON4.bmp"	500	1	266	"white"
9	"RightGun"	"BlackHisp"	3	"HispTool"	"hispFace2.bmp"	"TOOL4.bmp"	500	0	314	"white"
9	"RightGun"	"BlackHisp"	3	"HispTool"	"hispFace3.bmp"	"TOOL3.bmp"	500	1	298	"white"
9	"RightGun"	"BlackHisp"	3	"BlackGun"	"BlackFace1.bmp"	"WEAPON2.bmp"	500	1	322	"white"
9	"RightGun"	"BlackHisp"	3	"HispTool"	"hispFace4.bmp"	"TOOL2.bmp"	500	0	282	"white"
9	"RightGun"	"BlackHisp"	3	"BlackTool"	"BlackFace4.bmp"	"TOOL1.bmp"	500	0	409	"white"
9	"RightGun"	"BlackHisp"	3	"HispTool"	"hispFace1.bmp"	"TOOL3.bmp"	500	1	409	"white"
9	"RightGun"	"BlackHisp"	3	"HispGun"	"hispFace2.bmp"	"WEAPON1.bmp"	500	0	281	"white"
9	"RightGun"	"BlackHisp"	3	"HispGun"	"hispFace3.bmp"	"WEAPON3.bmp"	500	1	297	"white"
9	"RightGun"	"BlackHisp"	3	"BlackTool"	"BlackFace3.bmp"	"TOOL4.bmp"	500	0	257	"white"
9	"RightGun"	"BlackHisp"	3	"HispGun"	"hispFace4.bmp"	"WEAPON2.bmp"	500	1	431	"white"
9	"RightGun"	"BlackHisp"	3	"BlackTool"	"BlackFace2.bmp"	"TOOL2.bmp"	500	0	319	"white"
9	"RightGun"	"BlackHisp"	3	"HispTool"	"hispFace1.bmp"	"TOOL2.bmp"	500	1	375	"white"
9	"RightGun"	"BlackHisp"	3	"BlackTool"	"BlackFace1.bmp"	"TOOL4.bmp"	500	1	367	"white"
9	"RightGun"	"BlackHisp"	3	"HispGun"	"hispFace2.bmp"	"WEAPON4.bmp"	500	0	159	"white"
9	"RightGun"	"BlackHisp"	3	"HispGun"	"hispFace3.bmp"	"WEAPON3.bmp"	500	1	303	"white"
9	"RightGun"	"BlackHisp"	3	"BlackTool"	"BlackFace1.bmp"	"TOOL3.bmp"	500	0	287	"white"
9	"RightGun"	"BlackHisp"	3	"HispGun"	"hispFace4.bmp"	"WEAPON2.bmp"	500	1	383	"white"
9	"RightGun"	"BlackHisp"	3	"HispGun"	"hispFace1.bmp"	"WEAPON1.bmp"	500	0	287	"white"
9	"RightGun"	"BlackHisp"	3	"BlackGun"	"BlackFace4.bmp"	"WEAPON4.bmp"	500	1	311	"white"
9	"RightGun"	"BlackHisp"	3	"HispTool"	"hispFace2.bmp"	"TOOL1.bmp"	500	1	303	"white"
9	"RightGun"	"BlackHisp"	3	"BlackGun"	"BlackFace2.bmp"	"WEAPON2.bmp"	1000	1	663	"white"
9	"RightGun"	"BlackHisp"	3	"HispGun"	"hispFace3.bmp"	"WEAPON1.bmp"	500	1	315	"white"
9	"RightGun"	"BlackHisp"	3	"BlackGun"	"BlackFace3.bmp"	"WEAPON3.bmp"	500	1	379	"white"
9	"RightGun"	"BlackHisp"	3	"BlackGun"	"BlackFace4.bmp"	"WEAPON4.bmp"	500	1	259	"white"
9	"RightGun"	"BlackHisp"	3	"HispGun"	"hispFace4.bmp"	"WEAPON3.bmp"	500	1	291	"white"
9	"RightGun"	"BlackHisp"	3	"HispTool"	"hispFace1.bmp"	"TOOL2.bmp"	500	0	322	"white"
9	"RightGun"	"BlackHisp"	3	"BlackTool"	"BlackFace3.bmp"	"TOOL1.bmp"	500	0	434	"white"
9	"RightGun"	"BlackHisp"	3	"BlackGun"	"BlackFace2.bmp"	"WEAPON4.bmp"	500	1	418	"white"
9	"RightGun"	"BlackHisp"	3	"BlackTool"	"BlackFace1.bmp"	"TOOL3.bmp"	500	1	410	"white"
9	"RightGun"	"BlackHisp"	3	"BlackGun"	"BlackFace2.bmp"	"WEAPON2.bmp"	500	0	290	"white"
9	"RightGun"	"BlackHisp"	3	"BlackTool"	"BlackFace1.bmp"	"TOOL4.bmp"	500	0	130	"white"
9	"RightGun"	"BlackHisp"	3	"HispTool"	"hispFace2.bmp"	"TOOL1.bmp"	1000	1	530	"white"
9	"RightGun"	"BlackHisp"	3	"BlackGun"	"BlackFace3.bmp"	"WEAPON1.bmp"	500	1	334	"white"
9	"RightGun"	"BlackHisp"	3	"BlackGun"	"BlackFace4.bmp"	"WEAPON4.bmp"	500	1	254	"white"
9	"RightGun"	"BlackHisp"	3	"HispTool"	"hispFace3.bmp"	"TOOL2.bmp"	500	1	430	"white"
9	"RightGun"	"BlackHisp"	3	"HispTool"	"hispFace4.bmp"	"TOOL3.bmp"	500	1	478	"white"
9	"RightGun"	"BlackHisp"	3	"HispTool"	"hispFace1.bmp"	"TOOL4.bmp"	500	1	484	"white"
9	"RightGun"	"BlackHisp"	3	"HispGun"	"hispFace2.bmp"	"WEAPON1.bmp"	500	0	244	"white"
9	"RightGun"	"BlackHisp"	3	"HispGun"	"hispFace3.bmp"	"WEAPON2.bmp"	500	1	292	"white"
9	"RightGun"	"BlackHisp"	3	"HispTool"	"hispFace4.bmp"	"TOOL3.bmp"	500	0	260	"white"
9	"RightGun"	"BlackHisp"	3	"HispTool"	"hispFace1.bmp"	"TOOL4.bmp"	500	1	371	"white"
9	"RightGun"	"BlackHisp"	3	"BlackGun"	"BlackFace3.bmp"	"WEAPON3.bmp"	500	1	467	"white"
9	"RightGun"	"BlackHisp"	3	"BlackGun"	"BlackFace1.bmp"	"WEAPON2.bmp"	500	1	419	"white"
9	"RightGun"	"BlackHisp"	3	"BlackTool"	"BlackFace4.bmp"	"TOOL2.bmp"	500	0	347	"white"
9	"RightGun"	"BlackHisp"	3	"BlackGun"	"BlackFace2.bmp"	"WEAPON1.bmp"	500	1	396	"white"
9	"RightGun"	"BlackHisp"	3	"BlackGun"	"BlackFace3.bmp"	"WEAPON3.bmp"	500	1	284	"white"
9	"RightGun"	"BlackHisp"	3	"BlackTool"	"BlackFace4.bmp"	"TOOL1.bmp"	500	0	316	"white"
9	"RightGun"	"BlackHisp"	3	"HispTool"	"hispFace2.bmp"	"TOOL4.bmp"	500	1	316	"white"
9	"RightGun"	"BlackHisp"	3	"BlackTool"	"BlackFace2.bmp"	"TOOL3.bmp"	500	1	332	"white"
9	"RightGun"	"BlackHisp"	3	"HispTool"	"hispFace3.bmp"	"TOOL1.bmp"	500	1	308	"white"
9	"RightGun"	"BlackHisp"	3	"BlackGun"	"BlackFace1.bmp"	"WEAPON4.bmp"	500	0	236	"white"
9	"RightGun"	"BlackHisp"	3	"BlackTool"	"BlackFace2.bmp"	"TOOL2.bmp"	500	1	460	"white"
9	"RightGun"	"BlackHisp"	3	"BlackTool"	"BlackFace1.bmp"	"TOOL1.bmp"	1000	1	500	"white"
9	"RightGun"	"BlackHisp"	3	"HispGun"	"hispFace4.bmp"	"WEAPON1.bmp"	500	1	311	"white"
9	"RightGun"	"BlackHisp"	3	"HispGun"	"hispFace1.bmp"	"WEAPON4.bmp"	500	1	344	"white"
9	"RightGun"	"BlackHisp"	3	"HispTool"	"hispFace2.bmp"	"TOOL3.bmp"	500	0	288	"white"
9	"RightGun"	"BlackHisp"	3	"BlackTool"	"BlackFace3.bmp"	"TOOL4.bmp"	500	1	311	"white"
9	"RightGun"	"BlackHisp"	3	"HispGun"	"hispFace3.bmp"	"WEAPON2.bmp"	500	1	247	"white"
9	"RightGun"	"BlackHisp"	3	"HispTool"	"hispFace4.bmp"	"TOOL2.bmp"	500	1	479	"white"
9	"RightGun"	"BlackHisp"	3	"BlackTool"	"BlackFace4.bmp"	"TOOL2.bmp"	500	0	311	"white"
9	"RightGun"	"BlackHisp"	3	"BlackTool"	"BlackFace1.bmp"	"TOOL3.bmp"	500	1	455	"white"
9	"RightGun"	"BlackHisp"	3	"BlackGun"	"BlackFace2.bmp"	"WEAPON3.bmp"	500	0	359	"white"
9	"RightGun"	"BlackHisp"	3	"BlackGun"	"BlackFace4.bmp"	"WEAPON4.bmp"	1000	1	607	"white"
9	"RightGun"	"BlackHisp"	3	"HispGun"	"hispFace1.bmp"	"WEAPON1.bmp"	500	1	482	"white"
9	"RightGun"	"BlackHisp"	3	"HispTool"	"hispFace2.bmp"	"TOOL4.bmp"	500	1	394	"white"
9	"RightGun"	"BlackHisp"	3	"HispGun"	"hispFace3.bmp"	"WEAPON2.bmp"	500	1	379	"white"
9	"RightGun"	"BlackHisp"	3	"BlackGun"	"BlackFace3.bmp"	"WEAPON3.bmp"	500	1	339	"white"
9	"RightGun"	"BlackHisp"	3	"HispTool"	"hispFace4.bmp"	"TOOL1.bmp"	500	1	459	"white"
9	"RightGun"	"BlackHisp"	4	"HispGun"	"hispFace1.bmp"	"WEAPON4.bmp"	500	1	439	"white"
9	"RightGun"	"BlackHisp"	4	"HispGun"	"hispFace2.bmp"	"WEAPON1.bmp"	500	1	415	"white"
9	"RightGun"	"BlackHisp"	4	"HispTool"	"hispFace3.bmp"	"TOOL2.bmp"	500	1	446	"white"
9	"RightGun"	"BlackHisp"	4	"BlackTool"	"BlackFace2.bmp"	"TOOL3.bmp"	500	0	310	"white"
9	"RightGun"	"BlackHisp"	4	"BlackTool"	"BlackFace3.bmp"	"TOOL1.bmp"	500	1	478	"white"
9	"RightGun"	"BlackHisp"	4	"HispGun"	"hispFace4.bmp"	"WEAPON3.bmp"	500	1	366	"white"
9	"RightGun"	"BlackHisp"	4	"BlackGun"	"BlackFace1.bmp"	"WEAPON2.bmp"	500	0	310	"white"
9	"RightGun"	"BlackHisp"	4	"BlackTool"	"BlackFace4.bmp"	"TOOL4.bmp"	500	0	286	"white"
9	"RightGun"	"BlackHisp"	4	"HispGun"	"hispFace1.bmp"	"WEAPON4.bmp"	500	1	454	"white"
9	"RightGun"	"BlackHisp"	4	"HispGun"	"hispFace2.bmp"	"WEAPON3.bmp"	500	1	326	"white"
9	"RightGun"	"BlackHisp"	4	"HispTool"	"hispFace3.bmp"	"TOOL3.bmp"	500	1	430	"white"
9	"RightGun"	"BlackHisp"	4	"HispTool"	"hispFace4.bmp"	"TOOL1.bmp"	500	0	294	"white"
9	"RightGun"	"BlackHisp"	4	"HispGun"	"hispFace1.bmp"	"WEAPON1.bmp"	500	1	390	"white"
9	"RightGun"	"BlackHisp"	4	"BlackGun"	"BlackFace2.bmp"	"WEAPON2.bmp"	500	1	246	"white"
9	"RightGun"	"BlackHisp"	4	"HispTool"	"hispFace2.bmp"	"TOOL4.bmp"	500	0	342	"white"
9	"RightGun"	"BlackHisp"	4	"HispTool"	"hispFace3.bmp"	"TOOL2.bmp"	500	1	494	"white"
9	"RightGun"	"BlackHisp"	4	"HispTool"	"hispFace4.bmp"	"TOOL1.bmp"	500	0	334	"white"
9	"RightGun"	"BlackHisp"	4	"BlackTool"	"BlackFace4.bmp"	"TOOL2.bmp"	1000	1	510	"white"
9	"RightGun"	"BlackHisp"	4	"BlackTool"	"BlackFace1.bmp"	"TOOL3.bmp"	500	0	321	"white"
9	"RightGun"	"BlackHisp"	4	"BlackGun"	"BlackFace3.bmp"	"WEAPON3.bmp"	500	0	281	"white"
9	"RightGun"	"BlackHisp"	4	"BlackGun"	"BlackFace2.bmp"	"WEAPON2.bmp"	500	1	321	"white"
9	"RightGun"	"BlackHisp"	4	"BlackTool"	"BlackFace1.bmp"	"TOOL4.bmp"	500	1	449	"white"
9	"RightGun"	"BlackHisp"	4	"BlackTool"	"BlackFace4.bmp"	"TOOL4.bmp"	500	1	465	"white"
9	"RightGun"	"BlackHisp"	4	"HispTool"	"hispFace1.bmp"	"TOOL2.bmp"	500	1	481	"white"
9	"RightGun"	"BlackHisp"	4	"HispGun"	"hispFace2.bmp"	"WEAPON1.bmp"	500	1	401	"white"
9	"RightGun"	"BlackHisp"	4	"BlackTool"	"BlackFace3.bmp"	"TOOL3.bmp"	500	1	321	"white"
9	"RightGun"	"BlackHisp"	4	"BlackGun"	"BlackFace3.bmp"	"WEAPON4.bmp"	500	1	313	"white"
9	"RightGun"	"BlackHisp"	4	"BlackTool"	"BlackFace4.bmp"	"TOOL1.bmp"	500	0	369	"white"
9	"RightGun"	"BlackHisp"	4	"BlackTool"	"BlackFace1.bmp"	"TOOL1.bmp"	1000	1	529	"white"
9	"RightGun"	"BlackHisp"	4	"HispGun"	"hispFace3.bmp"	"WEAPON4.bmp"	500	1	341	"white"
9	"RightGun"	"BlackHisp"	4	"BlackGun"	"BlackFace2.bmp"	"WEAPON1.bmp"	500	0	437	"white"
9	"RightGun"	"BlackHisp"	4	"HispGun"	"hispFace4.bmp"	"WEAPON2.bmp"	500	1	437	"white"
9	"RightGun"	"BlackHisp"	4	"HispTool"	"hispFace1.bmp"	"TOOL4.bmp"	500	1	485	"white"
9	"RightGun"	"BlackHisp"	4	"HispGun"	"hispFace2.bmp"	"WEAPON3.bmp"	500	1	381	"white"
9	"RightGun"	"BlackHisp"	4	"HispTool"	"hispFace3.bmp"	"TOOL2.bmp"	500	1	493	"white"
9	"RightGun"	"BlackHisp"	4	"HispGun"	"hispFace4.bmp"	"WEAPON3.bmp"	1000	1	508	"white"
9	"RightGun"	"BlackHisp"	4	"BlackGun"	"BlackFace1.bmp"	"WEAPON4.bmp"	500	1	303	"white"
9	"RightGun"	"BlackHisp"	4	"BlackGun"	"BlackFace3.bmp"	"WEAPON1.bmp"	500	1	311	"white"
9	"RightGun"	"BlackHisp"	4	"BlackGun"	"BlackFace2.bmp"	"WEAPON2.bmp"	500	1	415	"white"
9	"RightGun"	"BlackHisp"	4	"HispTool"	"hispFace1.bmp"	"TOOL3.bmp"	500	1	447	"white"
9	"RightGun"	"BlackHisp"	4	"BlackTool"	"BlackFace4.bmp"	"TOOL2.bmp"	500	1	439	"white"
9	"RightGun"	"BlackHisp"	4	"BlackTool"	"BlackFace1.bmp"	"TOOL3.bmp"	500	1	327	"white"
9	"RightGun"	"BlackHisp"	4	"HispGun"	"hispFace2.bmp"	"WEAPON2.bmp"	500	0	207	"white"
9	"RightGun"	"BlackHisp"	4	"HispTool"	"hispFace3.bmp"	"TOOL4.bmp"	500	0	351	"white"
9	"RightGun"	"BlackHisp"	4	"BlackTool"	"BlackFace3.bmp"	"TOOL1.bmp"	1000	1	519	"white"
9	"RightGun"	"BlackHisp"	4	"BlackGun"	"BlackFace2.bmp"	"WEAPON3.bmp"	500	0	243	"white"
9	"RightGun"	"BlackHisp"	4	"HispGun"	"hispFace4.bmp"	"WEAPON4.bmp"	500	1	339	"white"
9	"RightGun"	"BlackHisp"	4	"BlackGun"	"BlackFace4.bmp"	"WEAPON1.bmp"	500	1	315	"white"
9	"RightGun"	"BlackHisp"	4	"BlackGun"	"BlackFace3.bmp"	"WEAPON3.bmp"	1000	1	515	"white"
9	"RightGun"	"BlackHisp"	4	"HispGun"	"hispFace1.bmp"	"WEAPON2.bmp"	500	1	382	"white"
9	"RightGun"	"BlackHisp"	4	"BlackGun"	"BlackFace2.bmp"	"WEAPON1.bmp"	500	1	430	"white"
9	"RightGun"	"BlackHisp"	4	"BlackGun"	"BlackFace4.bmp"	"WEAPON4.bmp"	500	1	317	"white"
9	"RightGun"	"BlackHisp"	4	"HispTool"	"hispFace2.bmp"	"TOOL1.bmp"	500	0	437	"white"
9	"RightGun"	"BlackHisp"	4	"BlackTool"	"BlackFace1.bmp"	"TOOL4.bmp"	500	1	309	"white"
9	"RightGun"	"BlackHisp"	4	"BlackGun"	"BlackFace4.bmp"	"WEAPON4.bmp"	500	1	277	"white"
9	"RightGun"	"BlackHisp"	4	"HispTool"	"hispFace3.bmp"	"TOOL2.bmp"	500	0	245	"white"
9	"RightGun"	"BlackHisp"	4	"HispTool"	"hispFace4.bmp"	"TOOL3.bmp"	500	1	245	"white"
9	"RightGun"	"BlackHisp"	4	"HispTool"	"hispFace1.bmp"	"TOOL1.bmp"	500	0	293	"white"
9	"RightGun"	"BlackHisp"	4	"HispGun"	"hispFace2.bmp"	"WEAPON2.bmp"	500	0	293	"white"
9	"RightGun"	"BlackHisp"	4	"HispTool"	"hispFace3.bmp"	"TOOL3.bmp"	500	0	29	"white"
9	"RightGun"	"BlackHisp"	4	"BlackTool"	"BlackFace1.bmp"	"TOOL2.bmp"	500	1	261	"white"
9	"RightGun"	"BlackHisp"	4	"BlackGun"	"BlackFace2.bmp"	"WEAPON3.bmp"	500	0	341	"white"
9	"RightGun"	"BlackHisp"	4	"HispGun"	"hispFace4.bmp"	"WEAPON1.bmp"	500	1	133	"white"
9	"RightGun"	"BlackHisp"	4	"BlackTool"	"BlackFace3.bmp"	"TOOL4.bmp"	500	0	405	"white"
9	"RightGun"	"BlackHisp"	4	"HispGun"	"hispFace1.bmp"	"WEAPON2.bmp"	500	1	328	"white"
9	"RightGun"	"BlackHisp"	4	"BlackTool"	"BlackFace4.bmp"	"TOOL4.bmp"	500	1	280	"white"
9	"RightGun"	"BlackHisp"	4	"BlackTool"	"BlackFace2.bmp"	"TOOL1.bmp"	500	0	359	"white"
9	"RightGun"	"BlackHisp"	4	"BlackGun"	"BlackFace1.bmp"	"WEAPON1.bmp"	500	0	215	"white"
9	"RightGun"	"BlackHisp"	4	"HispTool"	"hispFace2.bmp"	"TOOL2.bmp"	500	0	159	"white"
9	"RightGun"	"BlackHisp"	4	"HispGun"	"hispFace3.bmp"	"WEAPON4.bmp"	1000	1	503	"white"
9	"RightGun"	"BlackHisp"	4	"HispTool"	"hispFace4.bmp"	"TOOL3.bmp"	500	0	338	"white"
9	"RightGun"	"BlackHisp"	4	"BlackGun"	"BlackFace3.bmp"	"WEAPON3.bmp"	1000	1	562	"white"
9	"RightGun"	"BlackHisp"	4	"BlackGun"	"BlackFace4.bmp"	"WEAPON3.bmp"	500	1	310	"white"
9	"RightGun"	"BlackHisp"	4	"BlackGun"	"BlackFace3.bmp"	"WEAPON1.bmp"	500	1	350	"white"
9	"RightGun"	"BlackHisp"	4	"HispGun"	"hispFace1.bmp"	"WEAPON4.bmp"	500	1	366	"white"
9	"RightGun"	"BlackHisp"	4	"BlackGun"	"BlackFace1.bmp"	"WEAPON2.bmp"	500	0	334	"white"
9	"RightGun"	"BlackHisp"	4	"HispGun"	"hispFace2.bmp"	"WEAPON3.bmp"	500	1	486	"white"
9	"RightGun"	"BlackHisp"	4	"HispGun"	"hispFace3.bmp"	"WEAPON1.bmp"	500	1	334	"white"
9	"RightGun"	"BlackHisp"	4	"BlackTool"	"BlackFace2.bmp"	"TOOL4.bmp"	500	1	342	"white"
9	"RightGun"	"BlackHisp"	4	"HispTool"	"hispFace4.bmp"	"TOOL1.bmp"	1000	1	597	"white"
9	"RightGun"	"BlackHisp"	4	"HispGun"	"hispFace1.bmp"	"WEAPON4.bmp"	500	1	353	"white"
9	"RightGun"	"BlackHisp"	4	"BlackGun"	"BlackFace3.bmp"	"WEAPON2.bmp"	500	1	384	"white"
9	"RightGun"	"BlackHisp"	4	"BlackGun"	"BlackFace2.bmp"	"WEAPON3.bmp"	500	1	280	"white"
9	"RightGun"	"BlackHisp"	4	"HispGun"	"hispFace2.bmp"	"WEAPON1.bmp"	500	1	328	"white"
9	"RightGun"	"BlackHisp"	4	"HispTool"	"hispFace3.bmp"	"TOOL3.bmp"	500	0	344	"white"
9	"RightGun"	"BlackHisp"	4	"BlackTool"	"BlackFace1.bmp"	"TOOL2.bmp"	500	1	280	"white"
9	"RightGun"	"BlackHisp"	4	"BlackGun"	"BlackFace4.bmp"	"WEAPON4.bmp"	500	1	312	"white"
9	"RightGun"	"BlackHisp"	4	"HispTool"	"hispFace4.bmp"	"TOOL4.bmp"	500	1	344	"white"
9	"RightGun"	"BlackHisp"	4	"BlackTool"	"BlackFace1.bmp"	"TOOL2.bmp"	1000	1	520	"white"
9	"RightGun"	"BlackHisp"	4	"HispTool"	"hispFace1.bmp"	"TOOL1.bmp"	1000	1	604	"white"
9	"RightGun"	"BlackHisp"	4	"BlackGun"	"BlackFace2.bmp"	"WEAPON2.bmp"	500	1	351	"white"
9	"RightGun"	"BlackHisp"	4	"HispTool"	"hispFace2.bmp"	"TOOL3.bmp"	500	1	423	"white"
9	"RightGun"	"BlackHisp"	4	"BlackGun"	"BlackFace3.bmp"	"WEAPON1.bmp"	500	1	351	"white"
9	"RightGun"	"BlackHisp"	4	"BlackGun"	"BlackFace4.bmp"	"WEAPON2.bmp"	500	1	247	"white"
9	"RightGun"	"BlackHisp"	4	"HispGun"	"hispFace3.bmp"	"WEAPON4.bmp"	500	0	311	"white"
9	"RightGun"	"BlackHisp"	4	"HispTool"	"hispFace4.bmp"	"TOOL3.bmp"	500	0	287	"white"
100	"LeftGun"	"BlackHisp"	2	"BlackGun"	"BlackFace2.bmp"	"WEAPON4.bmp"	1000	1	521	"white"
100	"LeftGun"	"BlackHisp"	2	"HispGun"	"hispFace1.bmp"	"WEAPON3.bmp"	500	0	421	"white"
100	"LeftGun"	"BlackHisp"	2	"HispTool"	"hispFace2.bmp"	"TOOL2.bmp"	1000	1	549	"white"
100	"LeftGun"	"BlackHisp"	2	"HispTool"	"hispFace3.bmp"	"TOOL4.bmp"	1000	1	640	"white"
100	"LeftGun"	"BlackHisp"	2	"HispGun"	"hispFace4.bmp"	"WEAPON2.bmp"	500	0	356	"white"
100	"LeftGun"	"BlackHisp"	2	"BlackGun"	"BlackFace1.bmp"	"WEAPON1.bmp"	1000	1	508	"white"
100	"LeftGun"	"BlackHisp"	2	"BlackGun"	"BlackFace4.bmp"	"WEAPON1.bmp"	500	1	424	"white"
100	"LeftGun"	"BlackHisp"	2	"BlackTool"	"BlackFace3.bmp"	"TOOL1.bmp"	500	0	432	"white"
100	"LeftGun"	"BlackHisp"	2	"BlackTool"	"BlackFace1.bmp"	"TOOL3.bmp"	1000	1	504	"white"
100	"LeftGun"	"BlackHisp"	2	"BlackTool"	"BlackFace4.bmp"	"TOOL1.bmp"	1000	1	523	"white"
100	"LeftGun"	"BlackHisp"	2	"BlackTool"	"BlackFace3.bmp"	"TOOL3.bmp"	500	1	470	"white"
100	"LeftGun"	"BlackHisp"	2	"HispTool"	"hispFace1.bmp"	"TOOL2.bmp"	1000	1	526	"white"
100	"LeftGun"	"BlackHisp"	2	"BlackTool"	"BlackFace2.bmp"	"TOOL4.bmp"	500	1	481	"white"
100	"LeftGun"	"BlackHisp"	2	"BlackGun"	"BlackFace4.bmp"	"WEAPON2.bmp"	500	1	401	"white"
100	"LeftGun"	"BlackHisp"	2	"HispTool"	"hispFace2.bmp"	"TOOL4.bmp"	500	1	393	"white"
100	"LeftGun"	"BlackHisp"	2	"HispTool"	"hispFace3.bmp"	"TOOL1.bmp"	500	1	497	"white"
100	"LeftGun"	"BlackHisp"	2	"BlackTool"	"BlackFace2.bmp"	"TOOL3.bmp"	500	1	473	"white"
100	"LeftGun"	"BlackHisp"	2	"HispGun"	"hispFace4.bmp"	"WEAPON3.bmp"	500	1	393	"white"
100	"LeftGun"	"BlackHisp"	2	"HispGun"	"hispFace1.bmp"	"WEAPON4.bmp"	500	1	409	"white"
100	"LeftGun"	"BlackHisp"	2	"HispTool"	"hispFace2.bmp"	"TOOL2.bmp"	500	1	441	"white"
100	"LeftGun"	"BlackHisp"	2	"BlackTool"	"BlackFace1.bmp"	"TOOL2.bmp"	500	1	465	"white"
100	"LeftGun"	"BlackHisp"	2	"BlackGun"	"BlackFace3.bmp"	"WEAPON3.bmp"	500	1	449	"white"
100	"LeftGun"	"BlackHisp"	2	"HispGun"	"hispFace3.bmp"	"WEAPON4.bmp"	500	1	441	"white"
100	"LeftGun"	"BlackHisp"	2	"HispGun"	"hispFace4.bmp"	"WEAPON2.bmp"	500	1	449	"white"
100	"LeftGun"	"BlackHisp"	2	"HispTool"	"hispFace1.bmp"	"TOOL3.bmp"	500	1	456	"white"
100	"LeftGun"	"BlackHisp"	2	"HispGun"	"hispFace2.bmp"	"WEAPON1.bmp"	500	1	488	"white"
100	"LeftGun"	"BlackHisp"	2	"HispTool"	"hispFace3.bmp"	"TOOL1.bmp"	500	1	464	"white"
100	"LeftGun"	"BlackHisp"	2	"BlackGun"	"BlackFace3.bmp"	"WEAPON2.bmp"	1000	1	513	"white"
100	"LeftGun"	"BlackHisp"	2	"BlackGun"	"BlackFace2.bmp"	"WEAPON3.bmp"	500	1	333	"white"
100	"LeftGun"	"BlackHisp"	2	"BlackTool"	"BlackFace1.bmp"	"TOOL4.bmp"	500	1	421	"white"
100	"LeftGun"	"BlackHisp"	2	"BlackGun"	"BlackFace4.bmp"	"WEAPON4.bmp"	500	1	397	"white"
100	"LeftGun"	"BlackHisp"	2	"BlackTool"	"BlackFace3.bmp"	"TOOL2.bmp"	500	1	453	"white"
100	"LeftGun"	"BlackHisp"	2	"BlackGun"	"BlackFace4.bmp"	"WEAPON1.bmp"	500	1	375	"white"
100	"LeftGun"	"BlackHisp"	2	"HispTool"	"hispFace4.bmp"	"TOOL3.bmp"	500	1	423	"white"
100	"LeftGun"	"BlackHisp"	2	"BlackTool"	"BlackFace1.bmp"	"TOOL1.bmp"	1000	1	519	"white"
100	"LeftGun"	"BlackHisp"	2	"BlackTool"	"BlackFace2.bmp"	"TOOL4.bmp"	500	1	434	"white"
100	"LeftGun"	"BlackHisp"	2	"HispTool"	"hispFace1.bmp"	"TOOL3.bmp"	500	1	466	"white"
100	"LeftGun"	"BlackHisp"	2	"HispTool"	"hispFace2.bmp"	"TOOL4.bmp"	500	1	418	"white"
100	"LeftGun"	"BlackHisp"	2	"HispGun"	"hispFace3.bmp"	"WEAPON3.bmp"	500	1	426	"white"
100	"LeftGun"	"BlackHisp"	2	"BlackTool"	"BlackFace3.bmp"	"TOOL1.bmp"	500	1	490	"white"
100	"LeftGun"	"BlackHisp"	2	"HispGun"	"hispFace4.bmp"	"WEAPON1.bmp"	500	1	442	"white"
100	"LeftGun"	"BlackHisp"	2	"BlackGun"	"BlackFace2.bmp"	"WEAPON4.bmp"	1000	1	554	"white"
100	"LeftGun"	"BlackHisp"	2	"HispTool"	"hispFace1.bmp"	"TOOL2.bmp"	500	1	413	"white"
100	"LeftGun"	"BlackHisp"	2	"BlackTool"	"BlackFace1.bmp"	"TOOL3.bmp"	500	1	452	"white"
100	"LeftGun"	"BlackHisp"	2	"HispGun"	"hispFace2.bmp"	"WEAPON2.bmp"	500	1	396	"white"
100	"LeftGun"	"BlackHisp"	2	"HispTool"	"hispFace3.bmp"	"TOOL1.bmp"	500	1	492	"white"
100	"LeftGun"	"BlackHisp"	2	"BlackGun"	"BlackFace4.bmp"	"WEAPON4.bmp"	500	1	453	"white"
100	"LeftGun"	"BlackHisp"	2	"HispGun"	"hispFace4.bmp"	"WEAPON1.bmp"	1000	1	525	"white"
100	"LeftGun"	"BlackHisp"	2	"BlackTool"	"BlackFace2.bmp"	"TOOL4.bmp"	500	1	481	"white"
100	"LeftGun"	"BlackHisp"	2	"BlackGun"	"BlackFace3.bmp"	"WEAPON3.bmp"	500	1	377	"white"
100	"LeftGun"	"BlackHisp"	2	"HispGun"	"hispFace1.bmp"	"WEAPON2.bmp"	500	1	481	"white"
100	"LeftGun"	"BlackHisp"	2	"HispGun"	"hispFace2.bmp"	"WEAPON4.bmp"	500	1	497	"white"
100	"LeftGun"	"BlackHisp"	2	"HispGun"	"hispFace3.bmp"	"WEAPON1.bmp"	1000	1	569	"white"
100	"LeftGun"	"BlackHisp"	2	"HispGun"	"hispFace4.bmp"	"WEAPON2.bmp"	500	1	404	"white"
100	"LeftGun"	"BlackHisp"	2	"HispGun"	"hispFace1.bmp"	"WEAPON3.bmp"	500	1	388	"white"
100	"LeftGun"	"BlackHisp"	2	"BlackGun"	"BlackFace4.bmp"	"WEAPON2.bmp"	500	1	357	"white"
100	"LeftGun"	"BlackHisp"	2	"BlackTool"	"BlackFace1.bmp"	"TOOL2.bmp"	1000	1	517	"white"
100	"LeftGun"	"BlackHisp"	2	"HispTool"	"hispFace2.bmp"	"TOOL4.bmp"	1000	1	512	"white"
100	"LeftGun"	"BlackHisp"	2	"BlackGun"	"BlackFace4.bmp"	"WEAPON4.bmp"	500	1	371	"white"
100	"LeftGun"	"BlackHisp"	2	"HispTool"	"hispFace3.bmp"	"TOOL3.bmp"	500	1	411	"white"
100	"LeftGun"	"BlackHisp"	2	"BlackGun"	"BlackFace1.bmp"	"WEAPON1.bmp"	500	1	379	"white"
100	"LeftGun"	"BlackHisp"	2	"BlackTool"	"BlackFace2.bmp"	"TOOL1.bmp"	500	0	331	"white"
100	"LeftGun"	"BlackHisp"	2	"HispTool"	"hispFace4.bmp"	"TOOL2.bmp"	500	1	347	"white"
100	"LeftGun"	"BlackHisp"	2	"BlackGun"	"BlackFace3.bmp"	"WEAPON3.bmp"	500	1	395	"white"
100	"LeftGun"	"BlackHisp"	2	"HispGun"	"hispFace1.bmp"	"WEAPON2.bmp"	500	1	491	"white"
100	"LeftGun"	"BlackHisp"	2	"HispTool"	"hispFace2.bmp"	"TOOL2.bmp"	500	1	419	"white"
100	"LeftGun"	"BlackHisp"	2	"HispGun"	"hispFace3.bmp"	"WEAPON3.bmp"	500	1	331	"white"
100	"LeftGun"	"BlackHisp"	2	"HispTool"	"hispFace4.bmp"	"TOOL4.bmp"	500	1	427	"white"
100	"LeftGun"	"BlackHisp"	2	"BlackTool"	"BlackFace1.bmp"	"TOOL1.bmp"	500	0	347	"white"
100	"LeftGun"	"BlackHisp"	2	"HispTool"	"hispFace1.bmp"	"TOOL3.bmp"	500	1	499	"white"
100	"LeftGun"	"BlackHisp"	2	"HispTool"	"hispFace2.bmp"	"TOOL1.bmp"	500	1	482	"white"
100	"LeftGun"	"BlackHisp"	2	"BlackGun"	"BlackFace3.bmp"	"WEAPON1.bmp"	500	1	378	"white"
100	"LeftGun"	"BlackHisp"	2	"HispGun"	"hispFace3.bmp"	"WEAPON4.bmp"	500	1	450	"white"
100	"LeftGun"	"BlackHisp"	2	"BlackGun"	"BlackFace4.bmp"	"WEAPON3.bmp"	500	1	387	"white"
100	"LeftGun"	"BlackHisp"	2	"HispTool"	"hispFace4.bmp"	"TOOL4.bmp"	500	1	411	"white"
100	"LeftGun"	"BlackHisp"	2	"HispGun"	"hispFace1.bmp"	"WEAPON1.bmp"	1000	1	555	"white"
100	"LeftGun"	"BlackHisp"	2	"HispTool"	"hispFace2.bmp"	"TOOL3.bmp"	500	1	407	"white"
100	"LeftGun"	"BlackHisp"	2	"BlackGun"	"BlackFace2.bmp"	"WEAPON2.bmp"	500	1	343	"white"
100	"LeftGun"	"BlackHisp"	2	"BlackGun"	"BlackFace3.bmp"	"WEAPON4.bmp"	500	1	343	"white"
100	"LeftGun"	"BlackHisp"	2	"BlackTool"	"BlackFace4.bmp"	"TOOL2.bmp"	500	1	431	"white"
100	"LeftGun"	"BlackHisp"	2	"HispTool"	"hispFace3.bmp"	"TOOL3.bmp"	500	1	383	"white"
100	"LeftGun"	"BlackHisp"	2	"BlackTool"	"BlackFace2.bmp"	"TOOL2.bmp"	500	1	439	"white"
100	"LeftGun"	"BlackHisp"	2	"BlackTool"	"BlackFace1.bmp"	"TOOL4.bmp"	500	1	391	"white"
100	"LeftGun"	"BlackHisp"	2	"HispGun"	"hispFace4.bmp"	"WEAPON1.bmp"	500	0	327	"white"
100	"LeftGun"	"BlackHisp"	2	"BlackTool"	"BlackFace2.bmp"	"TOOL1.bmp"	1000	1	503	"white"
100	"LeftGun"	"BlackHisp"	2	"BlackTool"	"BlackFace4.bmp"	"TOOL2.bmp"	500	0	330	"white"
100	"LeftGun"	"BlackHisp"	2	"BlackTool"	"BlackFace1.bmp"	"TOOL1.bmp"	500	0	362	"white"
100	"LeftGun"	"BlackHisp"	2	"HispGun"	"hispFace1.bmp"	"WEAPON2.bmp"	500	1	490	"white"
100	"LeftGun"	"BlackHisp"	2	"HispGun"	"hispFace2.bmp"	"WEAPON4.bmp"	500	1	418	"white"
100	"LeftGun"	"BlackHisp"	2	"HispGun"	"hispFace3.bmp"	"WEAPON3.bmp"	500	1	474	"white"
100	"LeftGun"	"BlackHisp"	2	"HispTool"	"hispFace4.bmp"	"TOOL4.bmp"	500	1	418	"white"
100	"LeftGun"	"BlackHisp"	2	"HispTool"	"hispFace1.bmp"	"TOOL3.bmp"	500	1	474	"white"
100	"LeftGun"	"BlackHisp"	2	"BlackGun"	"BlackFace3.bmp"	"WEAPON2.bmp"	500	1	474	"white"
100	"LeftGun"	"BlackHisp"	2	"BlackTool"	"BlackFace1.bmp"	"TOOL2.bmp"	500	1	418	"white"
100	"LeftGun"	"BlackHisp"	2	"HispGun"	"hispFace2.bmp"	"WEAPON4.bmp"	500	1	490	"white"
100	"LeftGun"	"BlackHisp"	2	"BlackGun"	"BlackFace4.bmp"	"WEAPON3.bmp"	1000	1	506	"white"
100	"LeftGun"	"BlackHisp"	3	"HispTool"	"hispFace3.bmp"	"TOOL4.bmp"	500	1	486	"white"
100	"LeftGun"	"BlackHisp"	3	"BlackTool"	"BlackFace2.bmp"	"TOOL3.bmp"	500	1	494	"white"
100	"LeftGun"	"BlackHisp"	3	"BlackGun"	"BlackFace3.bmp"	"WEAPON1.bmp"	1000	1	518	"white"
100	"LeftGun"	"BlackHisp"	3	"BlackGun"	"BlackFace1.bmp"	"WEAPON4.bmp"	1000	1	522	"white"
100	"LeftGun"	"BlackHisp"	3	"BlackGun"	"BlackFace2.bmp"	"WEAPON3.bmp"	500	1	325	"white"
100	"LeftGun"	"BlackHisp"	3	"HispTool"	"hispFace4.bmp"	"TOOL1.bmp"	500	1	453	"white"
100	"LeftGun"	"BlackHisp"	3	"BlackTool"	"BlackFace3.bmp"	"TOOL3.bmp"	1000	1	501	"white"
100	"LeftGun"	"BlackHisp"	3	"BlackGun"	"BlackFace4.bmp"	"WEAPON2.bmp"	500	1	489	"white"
100	"LeftGun"	"BlackHisp"	3	"BlackGun"	"BlackFace1.bmp"	"WEAPON1.bmp"	500	1	393	"white"
100	"LeftGun"	"BlackHisp"	3	"BlackTool"	"BlackFace2.bmp"	"TOOL1.bmp"	1000	1	505	"white"
100	"LeftGun"	"BlackHisp"	3	"HispGun"	"hispFace1.bmp"	"WEAPON3.bmp"	500	1	436	"white"
100	"LeftGun"	"BlackHisp"	3	"BlackTool"	"BlackFace3.bmp"	"TOOL2.bmp"	500	1	444	"white"
100	"LeftGun"	"BlackHisp"	3	"HispTool"	"hispFace2.bmp"	"TOOL4.bmp"	500	1	373	"white"
100	"LeftGun"	"BlackHisp"	3	"HispTool"	"hispFace3.bmp"	"TOOL4.bmp"	500	1	389	"white"
100	"LeftGun"	"BlackHisp"	3	"HispTool"	"hispFace4.bmp"	"TOOL2.bmp"	500	1	468	"white"
100	"LeftGun"	"BlackHisp"	3	"BlackTool"	"BlackFace4.bmp"	"TOOL1.bmp"	500	0	340	"white"
100	"LeftGun"	"BlackHisp"	3	"HispTool"	"hispFace1.bmp"	"TOOL3.bmp"	1000	1	556	"white"
100	"LeftGun"	"BlackHisp"	3	"HispGun"	"hispFace2.bmp"	"WEAPON1.bmp"	1000	1	535	"white"
100	"LeftGun"	"BlackHisp"	3	"BlackGun"	"BlackFace4.bmp"	"WEAPON4.bmp"	500	1	419	"white"
100	"LeftGun"	"BlackHisp"	3	"HispTool"	"hispFace3.bmp"	"TOOL4.bmp"	500	1	419	"white"
100	"LeftGun"	"BlackHisp"	3	"HispGun"	"hispFace4.bmp"	"WEAPON2.bmp"	1000	1	563	"white"
100	"LeftGun"	"BlackHisp"	3	"BlackGun"	"BlackFace1.bmp"	"WEAPON1.bmp"	500	1	382	"white"
100	"LeftGun"	"BlackHisp"	3	"BlackTool"	"BlackFace3.bmp"	"TOOL3.bmp"	500	1	478	"white"
100	"LeftGun"	"BlackHisp"	3	"HispGun"	"hispFace1.bmp"	"WEAPON2.bmp"	500	1	494	"white"
100	"LeftGun"	"BlackHisp"	3	"BlackTool"	"BlackFace2.bmp"	"TOOL2.bmp"	1000	1	502	"white"
100	"LeftGun"	"BlackHisp"	3	"HispGun"	"hispFace2.bmp"	"WEAPON4.bmp"	500	1	490	"white"
100	"LeftGun"	"BlackHisp"	3	"BlackTool"	"BlackFace1.bmp"	"TOOL1.bmp"	500	1	498	"white"
100	"LeftGun"	"BlackHisp"	3	"HispGun"	"hispFace3.bmp"	"WEAPON3.bmp"	500	1	450	"white"
100	"LeftGun"	"BlackHisp"	3	"BlackGun"	"BlackFace2.bmp"	"WEAPON2.bmp"	1000	1	681	"white"
100	"LeftGun"	"BlackHisp"	3	"BlackGun"	"BlackFace3.bmp"	"WEAPON1.bmp"	500	1	356	"white"
100	"LeftGun"	"BlackHisp"	3	"HispGun"	"hispFace4.bmp"	"WEAPON4.bmp"	500	1	421	"white"
100	"LeftGun"	"BlackHisp"	3	"BlackGun"	"BlackFace4.bmp"	"WEAPON3.bmp"	500	1	477	"white"
100	"LeftGun"	"BlackHisp"	3	"BlackGun"	"BlackFace1.bmp"	"WEAPON4.bmp"	500	1	421	"white"
100	"LeftGun"	"BlackHisp"	3	"BlackTool"	"BlackFace4.bmp"	"TOOL2.bmp"	1000	0	0	"white"
100	"LeftGun"	"BlackHisp"	3	"BlackGun"	"BlackFace2.bmp"	"WEAPON3.bmp"	500	1	448	"white"
100	"LeftGun"	"BlackHisp"	3	"HispGun"	"hispFace1.bmp"	"WEAPON1.bmp"	500	1	440	"white"
100	"LeftGun"	"BlackHisp"	3	"HispGun"	"hispFace2.bmp"	"WEAPON2.bmp"	500	1	473	"white"
100	"LeftGun"	"BlackHisp"	3	"HispGun"	"hispFace3.bmp"	"WEAPON3.bmp"	500	1	409	"white"
100	"LeftGun"	"BlackHisp"	3	"BlackTool"	"BlackFace3.bmp"	"TOOL3.bmp"	500	0	336	"white"
100	"LeftGun"	"BlackHisp"	3	"BlackGun"	"BlackFace3.bmp"	"WEAPON4.bmp"	500	1	424	"white"
100	"LeftGun"	"BlackHisp"	3	"BlackTool"	"BlackFace2.bmp"	"TOOL1.bmp"	1000	0	0	"white"
100	"LeftGun"	"BlackHisp"	3	"BlackGun"	"BlackFace1.bmp"	"WEAPON1.bmp"	500	1	451	"white"
100	"LeftGun"	"BlackHisp"	3	"BlackTool"	"BlackFace4.bmp"	"TOOL4.bmp"	1000	0	0	"white"
100	"LeftGun"	"BlackHisp"	3	"BlackTool"	"BlackFace4.bmp"	"TOOL4.bmp"	1000	0	0	"white"
100	"LeftGun"	"BlackHisp"	3	"BlackGun"	"BlackFace3.bmp"	"WEAPON2.bmp"	1000	1	546	"white"
100	"LeftGun"	"BlackHisp"	3	"HispTool"	"hispFace4.bmp"	"TOOL2.bmp"	1000	0	0	"white"
100	"LeftGun"	"BlackHisp"	3	"HispGun"	"hispFace1.bmp"	"WEAPON2.bmp"	1000	0	0	"white"
100	"LeftGun"	"BlackHisp"	3	"HispGun"	"hispFace2.bmp"	"WEAPON4.bmp"	500	1	246	"white"
100	"LeftGun"	"BlackHisp"	3	"BlackGun"	"BlackFace2.bmp"	"WEAPON1.bmp"	500	1	390	"white"
100	"LeftGun"	"BlackHisp"	3	"BlackGun"	"BlackFace1.bmp"	"WEAPON3.bmp"	500	1	438	"white"
100	"LeftGun"	"BlackHisp"	3	"HispTool"	"hispFace3.bmp"	"TOOL1.bmp"	1000	0	0	"white"
100	"LeftGun"	"BlackHisp"	3	"HispTool"	"hispFace4.bmp"	"TOOL3.bmp"	1000	0	0	"white"
100	"LeftGun"	"BlackHisp"	3	"BlackTool"	"BlackFace3.bmp"	"TOOL1.bmp"	1000	0	0	"white"
100	"LeftGun"	"BlackHisp"	3	"BlackGun"	"BlackFace4.bmp"	"WEAPON3.bmp"	1000	0	0	"white"
100	"LeftGun"	"BlackHisp"	3	"BlackTool"	"BlackFace2.bmp"	"TOOL2.bmp"	500	0	355	"white"
100	"LeftGun"	"BlackHisp"	3	"HispTool"	"hispFace1.bmp"	"TOOL4.bmp"	1000	0	0	"white"
100	"LeftGun"	"BlackHisp"	3	"BlackTool"	"BlackFace1.bmp"	"TOOL3.bmp"	1000	0	0	"white"
100	"LeftGun"	"BlackHisp"	3	"BlackGun"	"BlackFace2.bmp"	"WEAPON1.bmp"	1000	0	0	"white"
100	"LeftGun"	"BlackHisp"	3	"BlackTool"	"BlackFace4.bmp"	"TOOL1.bmp"	1000	0	0	"white"
100	"LeftGun"	"BlackHisp"	3	"HispGun"	"hispFace2.bmp"	"WEAPON4.bmp"	1000	0	0	"white"
100	"LeftGun"	"BlackHisp"	3	"HispTool"	"hispFace3.bmp"	"TOOL4.bmp"	1000	0	0	"white"
100	"LeftGun"	"BlackHisp"	3	"HispTool"	"hispFace4.bmp"	"TOOL3.bmp"	1000	0	0	"white"
100	"LeftGun"	"BlackHisp"	3	"BlackGun"	"BlackFace1.bmp"	"WEAPON2.bmp"	1000	0	0	"white"
100	"LeftGun"	"BlackHisp"	3	"BlackGun"	"BlackFace3.bmp"	"WEAPON3.bmp"	500	1	270	"white"
100	"LeftGun"	"BlackHisp"	3	"HispTool"	"hispFace1.bmp"	"TOOL2.bmp"	500	1	435	"white"
100	"LeftGun"	"BlackHisp"	3	"HispGun"	"hispFace2.bmp"	"WEAPON2.bmp"	500	0	299	"white"
100	"LeftGun"	"BlackHisp"	3	"BlackGun"	"BlackFace2.bmp"	"WEAPON4.bmp"	500	1	339	"white"
100	"LeftGun"	"BlackHisp"	3	"HispTool"	"hispFace3.bmp"	"TOOL3.bmp"	500	1	403	"white"
100	"LeftGun"	"BlackHisp"	3	"BlackGun"	"BlackFace4.bmp"	"WEAPON1.bmp"	500	1	315	"white"
100	"LeftGun"	"BlackHisp"	3	"HispGun"	"hispFace4.bmp"	"WEAPON2.bmp"	500	1	387	"white"
100	"LeftGun"	"BlackHisp"	3	"BlackGun"	"BlackFace1.bmp"	"WEAPON3.bmp"	500	0	171	"white"
100	"LeftGun"	"BlackHisp"	3	"HispTool"	"hispFace1.bmp"	"TOOL4.bmp"	500	1	371	"white"
100	"LeftGun"	"BlackHisp"	3	"HispGun"	"hispFace2.bmp"	"WEAPON4.bmp"	500	1	299	"white"
100	"LeftGun"	"BlackHisp"	3	"BlackTool"	"BlackFace3.bmp"	"TOOL2.bmp"	500	1	443	"white"
100	"LeftGun"	"BlackHisp"	3	"BlackTool"	"BlackFace1.bmp"	"TOOL1.bmp"	500	0	291	"white"
100	"LeftGun"	"BlackHisp"	3	"HispGun"	"hispFace3.bmp"	"WEAPON1.bmp"	500	1	427	"white"
100	"LeftGun"	"BlackHisp"	3	"HispTool"	"hispFace4.bmp"	"TOOL4.bmp"	500	1	418	"white"
100	"LeftGun"	"BlackHisp"	3	"BlackTool"	"BlackFace2.bmp"	"TOOL3.bmp"	500	1	490	"white"
100	"LeftGun"	"BlackHisp"	3	"BlackGun"	"BlackFace3.bmp"	"WEAPON2.bmp"	500	1	355	"white"
100	"LeftGun"	"BlackHisp"	3	"BlackTool"	"BlackFace4.bmp"	"TOOL1.bmp"	500	1	483	"white"
100	"LeftGun"	"BlackHisp"	3	"HispTool"	"hispFace1.bmp"	"TOOL2.bmp"	500	1	483	"white"
100	"LeftGun"	"BlackHisp"	3	"BlackTool"	"BlackFace1.bmp"	"TOOL2.bmp"	500	1	387	"white"
100	"LeftGun"	"BlackHisp"	3	"HispGun"	"hispFace2.bmp"	"WEAPON3.bmp"	500	1	435	"white"
100	"LeftGun"	"BlackHisp"	3	"HispGun"	"hispFace3.bmp"	"WEAPON4.bmp"	500	1	379	"white"
100	"LeftGun"	"BlackHisp"	3	"HispGun"	"hispFace4.bmp"	"WEAPON1.bmp"	500	1	427	"white"
100	"LeftGun"	"BlackHisp"	3	"HispTool"	"hispFace1.bmp"	"TOOL1.bmp"	500	0	467	"white"
100	"LeftGun"	"BlackHisp"	3	"BlackGun"	"BlackFace4.bmp"	"WEAPON3.bmp"	500	1	379	"white"
100	"LeftGun"	"BlackHisp"	3	"HispGun"	"hispFace2.bmp"	"WEAPON1.bmp"	500	1	459	"white"
100	"LeftGun"	"BlackHisp"	3	"HispTool"	"hispFace3.bmp"	"TOOL4.bmp"	500	1	427	"white"
100	"LeftGun"	"BlackHisp"	3	"HispTool"	"hispFace4.bmp"	"TOOL3.bmp"	500	1	459	"white"
100	"LeftGun"	"BlackHisp"	3	"HispGun"	"hispFace1.bmp"	"WEAPON2.bmp"	500	1	442	"white"
100	"LeftGun"	"BlackHisp"	3	"BlackTool"	"BlackFace3.bmp"	"TOOL2.bmp"	1000	1	762	"white"
100	"LeftGun"	"BlackHisp"	3	"BlackTool"	"BlackFace2.bmp"	"TOOL3.bmp"	500	1	366	"white"
100	"LeftGun"	"BlackHisp"	3	"HispTool"	"hispFace2.bmp"	"TOOL4.bmp"	500	1	382	"white"
100	"LeftGun"	"BlackHisp"	3	"HispGun"	"hispFace3.bmp"	"WEAPON4.bmp"	500	1	422	"white"
100	"LeftGun"	"BlackHisp"	3	"HispTool"	"hispFace4.bmp"	"TOOL1.bmp"	500	1	438	"white"
100	"LeftGun"	"BlackHisp"	4	"BlackGun"	"BlackFace3.bmp"	"WEAPON3.bmp"	1000	1	510	"white"
100	"LeftGun"	"BlackHisp"	4	"BlackGun"	"BlackFace1.bmp"	"WEAPON4.bmp"	500	1	434	"white"
100	"LeftGun"	"BlackHisp"	4	"BlackTool"	"BlackFace2.bmp"	"TOOL1.bmp"	500	0	298	"white"
100	"LeftGun"	"BlackHisp"	4	"HispTool"	"hispFace1.bmp"	"TOOL4.bmp"	500	1	386	"white"
100	"LeftGun"	"BlackHisp"	4	"BlackGun"	"BlackFace4.bmp"	"WEAPON2.bmp"	500	1	466	"white"
100	"LeftGun"	"BlackHisp"	4	"BlackTool"	"BlackFace1.bmp"	"TOOL2.bmp"	500	1	449	"white"
100	"LeftGun"	"BlackHisp"	4	"HispGun"	"hispFace2.bmp"	"WEAPON1.bmp"	1000	1	585	"white"
100	"LeftGun"	"BlackHisp"	4	"BlackGun"	"BlackFace2.bmp"	"WEAPON1.bmp"	1000	1	573	"white"
100	"LeftGun"	"BlackHisp"	4	"HispGun"	"hispFace3.bmp"	"WEAPON3.bmp"	500	1	409	"white"
100	"LeftGun"	"BlackHisp"	4	"HispTool"	"hispFace4.bmp"	"TOOL3.bmp"	500	1	457	"white"
100	"LeftGun"	"BlackHisp"	4	"BlackGun"	"BlackFace3.bmp"	"WEAPON2.bmp"	500	0	409	"white"
100	"LeftGun"	"BlackHisp"	4	"HispTool"	"hispFace1.bmp"	"TOOL4.bmp"	500	0	337	"white"
100	"LeftGun"	"BlackHisp"	4	"HispGun"	"hispFace2.bmp"	"WEAPON4.bmp"	500	1	473	"white"
100	"LeftGun"	"BlackHisp"	4	"HispTool"	"hispFace3.bmp"	"TOOL1.bmp"	500	1	409	"white"
100	"LeftGun"	"BlackHisp"	4	"BlackTool"	"BlackFace4.bmp"	"TOOL2.bmp"	500	1	457	"white"
100	"LeftGun"	"BlackHisp"	4	"HispTool"	"hispFace4.bmp"	"TOOL3.bmp"	500	1	401	"white"
100	"LeftGun"	"BlackHisp"	4	"BlackTool"	"BlackFace3.bmp"	"TOOL4.bmp"	500	1	441	"white"
100	"LeftGun"	"BlackHisp"	4	"BlackTool"	"BlackFace2.bmp"	"TOOL2.bmp"	500	1	449	"white"
100	"LeftGun"	"BlackHisp"	4	"HispGun"	"hispFace1.bmp"	"WEAPON4.bmp"	1000	1	617	"white"
100	"LeftGun"	"BlackHisp"	4	"HispTool"	"hispFace2.bmp"	"TOOL1.bmp"	1000	1	556	"white"
100	"LeftGun"	"BlackHisp"	4	"HispGun"	"hispFace3.bmp"	"WEAPON1.bmp"	500	1	439	"white"
100	"LeftGun"	"BlackHisp"	4	"HispGun"	"hispFace4.bmp"	"WEAPON3.bmp"	500	1	463	"white"
100	"LeftGun"	"BlackHisp"	4	"HispTool"	"hispFace1.bmp"	"TOOL3.bmp"	500	1	383	"white"
100	"LeftGun"	"BlackHisp"	4	"BlackGun"	"BlackFace4.bmp"	"WEAPON2.bmp"	500	1	359	"white"
100	"LeftGun"	"BlackHisp"	4	"BlackGun"	"BlackFace1.bmp"	"WEAPON3.bmp"	1000	1	511	"white"
100	"LeftGun"	"BlackHisp"	4	"BlackTool"	"BlackFace1.bmp"	"TOOL3.bmp"	500	1	451	"white"
100	"LeftGun"	"BlackHisp"	4	"HispGun"	"hispFace2.bmp"	"WEAPON4.bmp"	500	1	363	"white"
100	"LeftGun"	"BlackHisp"	4	"BlackTool"	"BlackFace4.bmp"	"TOOL4.bmp"	500	1	403	"white"
100	"LeftGun"	"BlackHisp"	4	"HispTool"	"hispFace3.bmp"	"TOOL2.bmp"	500	0	419	"white"
100	"LeftGun"	"BlackHisp"	4	"HispGun"	"hispFace4.bmp"	"WEAPON2.bmp"	500	1	411	"white"
100	"LeftGun"	"BlackHisp"	4	"HispTool"	"hispFace1.bmp"	"TOOL1.bmp"	500	0	475	"white"
100	"LeftGun"	"BlackHisp"	4	"HispTool"	"hispFace2.bmp"	"TOOL2.bmp"	500	1	403	"white"
100	"LeftGun"	"BlackHisp"	4	"HispGun"	"hispFace3.bmp"	"WEAPON1.bmp"	500	1	475	"white"
100	"LeftGun"	"BlackHisp"	4	"HispGun"	"hispFace4.bmp"	"WEAPON4.bmp"	1000	1	523	"white"
100	"LeftGun"	"BlackHisp"	4	"BlackGun"	"BlackFace2.bmp"	"WEAPON2.bmp"	500	1	423	"white"
100	"LeftGun"	"BlackHisp"	4	"HispTool"	"hispFace1.bmp"	"TOOL1.bmp"	500	1	463	"white"
100	"LeftGun"	"BlackHisp"	4	"BlackGun"	"BlackFace3.bmp"	"WEAPON1.bmp"	500	1	479	"white"
100	"LeftGun"	"BlackHisp"	4	"HispTool"	"hispFace2.bmp"	"TOOL4.bmp"	500	1	431	"white"
100	"LeftGun"	"BlackHisp"	4	"BlackGun"	"BlackFace4.bmp"	"WEAPON3.bmp"	500	1	431	"white"
100	"LeftGun"	"BlackHisp"	4	"BlackGun"	"BlackFace2.bmp"	"WEAPON4.bmp"	500	1	335	"white"
100	"LeftGun"	"BlackHisp"	4	"BlackTool"	"BlackFace1.bmp"	"TOOL3.bmp"	500	1	423	"white"
100	"LeftGun"	"BlackHisp"	4	"HispGun"	"hispFace3.bmp"	"WEAPON1.bmp"	500	1	471	"white"
100	"LeftGun"	"BlackHisp"	4	"HispGun"	"hispFace4.bmp"	"WEAPON3.bmp"	500	1	359	"white"
100	"LeftGun"	"BlackHisp"	4	"BlackTool"	"BlackFace3.bmp"	"TOOL1.bmp"	500	0	367	"white"
100	"LeftGun"	"BlackHisp"	4	"BlackGun"	"BlackFace1.bmp"	"WEAPON2.bmp"	500	1	399	"white"
100	"LeftGun"	"BlackHisp"	4	"BlackGun"	"BlackFace2.bmp"	"WEAPON2.bmp"	500	0	407	"white"
100	"LeftGun"	"BlackHisp"	4	"BlackTool"	"BlackFace3.bmp"	"TOOL3.bmp"	500	1	414	"white"
100	"LeftGun"	"BlackHisp"	4	"BlackGun"	"BlackFace4.bmp"	"WEAPON3.bmp"	500	1	462	"white"
100	"LeftGun"	"BlackHisp"	4	"BlackTool"	"BlackFace1.bmp"	"TOOL4.bmp"	500	1	486	"white"
100	"LeftGun"	"BlackHisp"	4	"BlackTool"	"BlackFace3.bmp"	"TOOL2.bmp"	500	1	487	"white"
100	"LeftGun"	"BlackHisp"	4	"HispGun"	"hispFace1.bmp"	"WEAPON1.bmp"	500	0	455	"white"
100	"LeftGun"	"BlackHisp"	4	"BlackGun"	"BlackFace4.bmp"	"WEAPON4.bmp"	500	1	471	"white"
100	"LeftGun"	"BlackHisp"	4	"BlackTool"	"BlackFace2.bmp"	"TOOL1.bmp"	500	1	415	"white"
100	"LeftGun"	"BlackHisp"	4	"BlackTool"	"BlackFace1.bmp"	"TOOL2.bmp"	500	1	463	"white"
100	"LeftGun"	"BlackHisp"	4	"HispTool"	"hispFace2.bmp"	"TOOL4.bmp"	500	1	463	"white"
100	"LeftGun"	"BlackHisp"	4	"HispGun"	"hispFace3.bmp"	"WEAPON2.bmp"	500	1	367	"white"
100	"LeftGun"	"BlackHisp"	4	"BlackTool"	"BlackFace3.bmp"	"TOOL3.bmp"	500	1	431	"white"
100	"LeftGun"	"BlackHisp"	4	"BlackTool"	"BlackFace2.bmp"	"TOOL1.bmp"	500	0	471	"white"
100	"LeftGun"	"BlackHisp"	4	"HispGun"	"hispFace4.bmp"	"WEAPON3.bmp"	500	1	487	"white"
100	"LeftGun"	"BlackHisp"	4	"HispTool"	"hispFace1.bmp"	"TOOL2.bmp"	500	1	439	"white"
100	"LeftGun"	"BlackHisp"	4	"HispGun"	"hispFace2.bmp"	"WEAPON4.bmp"	500	1	486	"white"
100	"LeftGun"	"BlackHisp"	4	"BlackGun"	"BlackFace4.bmp"	"WEAPON1.bmp"	500	1	414	"white"
100	"LeftGun"	"BlackHisp"	4	"HispTool"	"hispFace3.bmp"	"TOOL4.bmp"	1000	1	510	"white"
100	"LeftGun"	"BlackHisp"	4	"HispTool"	"hispFace4.bmp"	"TOOL3.bmp"	500	1	474	"white"
100	"LeftGun"	"BlackHisp"	4	"HispGun"	"hispFace1.bmp"	"WEAPON1.bmp"	500	1	431	"white"
100	"LeftGun"	"BlackHisp"	4	"BlackGun"	"BlackFace2.bmp"	"WEAPON4.bmp"	500	1	367	"white"
100	"LeftGun"	"BlackHisp"	4	"HispGun"	"hispFace2.bmp"	"WEAPON3.bmp"	500	1	367	"white"
100	"LeftGun"	"BlackHisp"	4	"BlackTool"	"BlackFace1.bmp"	"TOOL4.bmp"	500	1	447	"white"
100	"LeftGun"	"BlackHisp"	4	"HispTool"	"hispFace3.bmp"	"TOOL1.bmp"	1000	1	511	"white"
100	"LeftGun"	"BlackHisp"	4	"HispGun"	"hispFace4.bmp"	"WEAPON2.bmp"	500	1	467	"white"
100	"LeftGun"	"BlackHisp"	4	"HispGun"	"hispFace1.bmp"	"WEAPON2.bmp"	500	1	419	"white"
100	"LeftGun"	"BlackHisp"	4	"HispTool"	"hispFace2.bmp"	"TOOL3.bmp"	500	1	435	"white"
100	"LeftGun"	"BlackHisp"	4	"HispGun"	"hispFace3.bmp"	"WEAPON3.bmp"	500	1	426	"white"
100	"LeftGun"	"BlackHisp"	4	"BlackTool"	"BlackFace4.bmp"	"TOOL2.bmp"	500	1	498	"white"
100	"LeftGun"	"BlackHisp"	4	"BlackTool"	"BlackFace3.bmp"	"TOOL2.bmp"	500	1	370	"white"
100	"LeftGun"	"BlackHisp"	4	"HispTool"	"hispFace4.bmp"	"TOOL1.bmp"	500	1	378	"white"
100	"LeftGun"	"BlackHisp"	4	"BlackGun"	"BlackFace2.bmp"	"WEAPON4.bmp"	500	1	466	"white"
100	"LeftGun"	"BlackHisp"	4	"BlackGun"	"BlackFace1.bmp"	"WEAPON1.bmp"	500	1	490	"white"
100	"LeftGun"	"BlackHisp"	4	"BlackGun"	"BlackFace3.bmp"	"WEAPON3.bmp"	500	1	410	"white"
100	"LeftGun"	"BlackHisp"	4	"HispTool"	"hispFace1.bmp"	"TOOL4.bmp"	500	1	410	"white"
100	"LeftGun"	"BlackHisp"	4	"HispTool"	"hispFace2.bmp"	"TOOL3.bmp"	500	1	450	"white"
100	"LeftGun"	"BlackHisp"	4	"BlackGun"	"BlackFace4.bmp"	"WEAPON1.bmp"	500	1	434	"white"
100	"LeftGun"	"BlackHisp"	4	"BlackTool"	"BlackFace1.bmp"	"TOOL2.bmp"	500	1	482	"white"
100	"LeftGun"	"BlackHisp"	4	"HispGun"	"hispFace3.bmp"	"WEAPON2.bmp"	500	0	458	"white"
100	"LeftGun"	"BlackHisp"	4	"BlackGun"	"BlackFace2.bmp"	"WEAPON4.bmp"	500	1	419	"white"
100	"LeftGun"	"BlackHisp"	4	"BlackGun"	"BlackFace3.bmp"	"WEAPON1.bmp"	500	1	499	"white"
100	"LeftGun"	"BlackHisp"	4	"HispGun"	"hispFace4.bmp"	"WEAPON4.bmp"	1000	1	538	"white"
100	"LeftGun"	"BlackHisp"	4	"BlackGun"	"BlackFace4.bmp"	"WEAPON3.bmp"	500	1	397	"white"
100	"LeftGun"	"BlackHisp"	4	"BlackGun"	"BlackFace4.bmp"	"WEAPON2.bmp"	500	1	389	"white"
100	"LeftGun"	"BlackHisp"	4	"HispTool"	"hispFace1.bmp"	"TOOL1.bmp"	1000	1	541	"white"
100	"LeftGun"	"BlackHisp"	4	"HispTool"	"hispFace2.bmp"	"TOOL4.bmp"	1000	1	505	"white"
100	"LeftGun"	"BlackHisp"	4	"BlackGun"	"BlackFace3.bmp"	"WEAPON4.bmp"	500	0	260	"white"
100	"LeftGun"	"BlackHisp"	4	"HispTool"	"hispFace3.bmp"	"TOOL3.bmp"	500	1	436	"white"
100	"LeftGun"	"BlackHisp"	4	"HispGun"	"hispFace4.bmp"	"WEAPON1.bmp"	500	1	396	"white"
100	"LeftGun"	"BlackHisp"	4	"BlackGun"	"BlackFace1.bmp"	"WEAPON2.bmp"	500	1	372	"white"
100	"LeftGun"	"BlackHisp"	4	"HispGun"	"hispFace1.bmp"	"WEAPON3.bmp"	500	1	428	"white"
101	"RightGun"	"WhiteHisp"	2	"HispGun"	"hispFace1.bmp"	"WEAPON1.bmp"	500	1	381	"white"
101	"RightGun"	"WhiteHisp"	2	"HispGun"	"hispFace2.bmp"	"WEAPON3.bmp"	500	1	389	"white"
101	"RightGun"	"WhiteHisp"	2	"WhiteTool"	"whiteface2.bmp"	"TOOL2.bmp"	500	1	453	"white"
101	"RightGun"	"WhiteHisp"	2	"HispTool"	"hispFace3.bmp"	"TOOL1.bmp"	500	0	469	"white"
101	"RightGun"	"WhiteHisp"	2	"HispTool"	"hispFace4.bmp"	"TOOL4.bmp"	1000	1	605	"white"
101	"RightGun"	"WhiteHisp"	2	"WhiteTool"	"whiteface4.bmp"	"TOOL3.bmp"	1000	1	584	"white"
101	"RightGun"	"WhiteHisp"	2	"WhiteGun"	"whiteface1.bmp"	"WEAPON2.bmp"	500	1	444	"white"
101	"RightGun"	"WhiteHisp"	2	"HispTool"	"hispFace1.bmp"	"TOOL4.bmp"	1000	1	540	"white"
101	"RightGun"	"WhiteHisp"	2	"WhiteTool"	"whiteface3.bmp"	"TOOL1.bmp"	500	1	472	"white"
101	"RightGun"	"WhiteHisp"	2	"HispGun"	"hispFace2.bmp"	"WEAPON4.bmp"	500	1	480	"white"
101	"RightGun"	"WhiteHisp"	2	"HispTool"	"hispFace3.bmp"	"TOOL2.bmp"	500	1	480	"white"
101	"RightGun"	"WhiteHisp"	2	"WhiteGun"	"whiteface2.bmp"	"WEAPON2.bmp"	500	1	495	"white"
101	"RightGun"	"WhiteHisp"	2	"WhiteGun"	"whiteface3.bmp"	"WEAPON4.bmp"	500	1	455	"white"
101	"RightGun"	"WhiteHisp"	2	"HispTool"	"hispFace4.bmp"	"TOOL3.bmp"	500	1	423	"white"
101	"RightGun"	"WhiteHisp"	2	"WhiteGun"	"whiteface4.bmp"	"WEAPON1.bmp"	500	1	455	"white"
101	"RightGun"	"WhiteHisp"	2	"WhiteGun"	"whiteface1.bmp"	"WEAPON3.bmp"	1000	1	567	"white"
101	"RightGun"	"WhiteHisp"	2	"HispGun"	"hispFace1.bmp"	"WEAPON3.bmp"	500	1	386	"white"
101	"RightGun"	"WhiteHisp"	2	"WhiteTool"	"whiteface3.bmp"	"TOOL1.bmp"	1000	1	515	"white"
101	"RightGun"	"WhiteHisp"	2	"HispTool"	"hispFace2.bmp"	"TOOL4.bmp"	500	0	487	"white"
101	"RightGun"	"WhiteHisp"	2	"WhiteTool"	"whiteface2.bmp"	"TOOL2.bmp"	1000	1	639	"white"
101	"RightGun"	"WhiteHisp"	2	"WhiteTool"	"whiteface1.bmp"	"TOOL3.bmp"	1000	1	507	"white"
101	"RightGun"	"WhiteHisp"	2	"HispTool"	"hispFace3.bmp"	"TOOL4.bmp"	500	1	446	"white"
101	"RightGun"	"WhiteHisp"	2	"HispGun"	"hispFace4.bmp"	"WEAPON2.bmp"	500	1	430	"white"
101	"RightGun"	"WhiteHisp"	2	"WhiteTool"	"whiteface4.bmp"	"TOOL1.bmp"	500	1	406	"white"
101	"RightGun"	"WhiteHisp"	2	"WhiteGun"	"whiteface4.bmp"	"WEAPON4.bmp"	500	1	414	"white"
101	"RightGun"	"WhiteHisp"	2	"HispTool"	"hispFace1.bmp"	"TOOL2.bmp"	500	1	382	"white"
101	"RightGun"	"WhiteHisp"	2	"HispGun"	"hispFace2.bmp"	"WEAPON1.bmp"	500	1	454	"white"
101	"RightGun"	"WhiteHisp"	2	"WhiteGun"	"whiteface1.bmp"	"WEAPON4.bmp"	500	0	390	"white"
101	"RightGun"	"WhiteHisp"	2	"HispGun"	"hispFace3.bmp"	"WEAPON3.bmp"	500	1	437	"white"
101	"RightGun"	"WhiteHisp"	2	"WhiteTool"	"whiteface3.bmp"	"TOOL3.bmp"	500	1	422	"white"
101	"RightGun"	"WhiteHisp"	2	"HispTool"	"hispFace4.bmp"	"TOOL1.bmp"	1000	0	646	"white"
101	"RightGun"	"WhiteHisp"	2	"WhiteGun"	"whiteface2.bmp"	"WEAPON2.bmp"	500	1	466	"white"
101	"RightGun"	"WhiteHisp"	2	"HispTool"	"hispFace1.bmp"	"TOOL3.bmp"	500	1	445	"white"
101	"RightGun"	"WhiteHisp"	2	"HispGun"	"hispFace2.bmp"	"WEAPON1.bmp"	500	1	389	"white"
101	"RightGun"	"WhiteHisp"	2	"WhiteTool"	"whiteface4.bmp"	"TOOL4.bmp"	500	1	453	"white"
101	"RightGun"	"WhiteHisp"	2	"WhiteTool"	"whiteface3.bmp"	"TOOL2.bmp"	500	1	493	"white"
101	"RightGun"	"WhiteHisp"	2	"HispGun"	"hispFace3.bmp"	"WEAPON2.bmp"	500	1	405	"white"
101	"RightGun"	"WhiteHisp"	2	"HispTool"	"hispFace4.bmp"	"TOOL1.bmp"	500	1	469	"white"
101	"RightGun"	"WhiteHisp"	2	"HispTool"	"hispFace1.bmp"	"TOOL2.bmp"	1000	1	509	"white"
101	"RightGun"	"WhiteHisp"	2	"HispGun"	"hispFace2.bmp"	"WEAPON4.bmp"	500	1	385	"white"
101	"RightGun"	"WhiteHisp"	2	"HispTool"	"hispFace3.bmp"	"TOOL3.bmp"	500	1	425	"white"
101	"RightGun"	"WhiteHisp"	2	"HispTool"	"hispFace4.bmp"	"TOOL4.bmp"	500	1	433	"white"
101	"RightGun"	"WhiteHisp"	2	"WhiteTool"	"whiteface1.bmp"	"TOOL3.bmp"	500	1	433	"white"
101	"RightGun"	"WhiteHisp"	2	"WhiteTool"	"whiteface2.bmp"	"TOOL2.bmp"	1000	1	505	"white"
101	"RightGun"	"WhiteHisp"	2	"WhiteTool"	"whiteface4.bmp"	"TOOL1.bmp"	1000	1	595	"white"
101	"RightGun"	"WhiteHisp"	2	"HispTool"	"hispFace1.bmp"	"TOOL4.bmp"	500	1	463	"white"
101	"RightGun"	"WhiteHisp"	2	"WhiteTool"	"whiteface3.bmp"	"TOOL4.bmp"	500	1	471	"white"
101	"RightGun"	"WhiteHisp"	2	"WhiteGun"	"whiteface1.bmp"	"WEAPON3.bmp"	500	1	351	"white"
101	"RightGun"	"WhiteHisp"	2	"WhiteGun"	"whiteface2.bmp"	"WEAPON1.bmp"	500	1	367	"white"
101	"RightGun"	"WhiteHisp"	2	"HispGun"	"hispFace2.bmp"	"WEAPON4.bmp"	500	1	471	"white"
101	"RightGun"	"WhiteHisp"	2	"WhiteGun"	"whiteface4.bmp"	"WEAPON2.bmp"	500	1	415	"white"
101	"RightGun"	"WhiteHisp"	2	"WhiteTool"	"whiteface1.bmp"	"TOOL3.bmp"	500	1	463	"white"
101	"RightGun"	"WhiteHisp"	2	"WhiteTool"	"whiteface3.bmp"	"TOOL2.bmp"	500	1	495	"white"
101	"RightGun"	"WhiteHisp"	2	"WhiteGun"	"whiteface2.bmp"	"WEAPON1.bmp"	500	1	391	"white"
101	"RightGun"	"WhiteHisp"	2	"HispGun"	"hispFace3.bmp"	"WEAPON3.bmp"	500	1	471	"white"
101	"RightGun"	"WhiteHisp"	2	"HispGun"	"hispFace4.bmp"	"WEAPON4.bmp"	500	1	391	"white"
101	"RightGun"	"WhiteHisp"	2	"WhiteGun"	"whiteface4.bmp"	"WEAPON3.bmp"	500	1	359	"white"
101	"RightGun"	"WhiteHisp"	2	"WhiteGun"	"whiteface3.bmp"	"WEAPON1.bmp"	500	1	327	"white"
101	"RightGun"	"WhiteHisp"	2	"WhiteGun"	"whiteface2.bmp"	"WEAPON2.bmp"	500	0	383	"white"
101	"RightGun"	"WhiteHisp"	2	"HispGun"	"hispFace1.bmp"	"WEAPON2.bmp"	500	1	343	"white"
101	"RightGun"	"WhiteHisp"	2	"HispGun"	"hispFace2.bmp"	"WEAPON1.bmp"	500	1	343	"white"
101	"RightGun"	"WhiteHisp"	2	"WhiteGun"	"whiteface1.bmp"	"WEAPON3.bmp"	500	1	351	"white"
101	"RightGun"	"WhiteHisp"	2	"HispGun"	"hispFace3.bmp"	"WEAPON4.bmp"	500	1	398	"white"
101	"RightGun"	"WhiteHisp"	2	"HispTool"	"hispFace4.bmp"	"TOOL1.bmp"	500	0	318	"white"
101	"RightGun"	"WhiteHisp"	2	"HispGun"	"hispFace1.bmp"	"WEAPON4.bmp"	500	1	481	"white"
101	"RightGun"	"WhiteHisp"	2	"HispTool"	"hispFace2.bmp"	"TOOL4.bmp"	500	1	457	"white"
101	"RightGun"	"WhiteHisp"	2	"HispTool"	"hispFace3.bmp"	"TOOL2.bmp"	500	1	433	"white"
101	"RightGun"	"WhiteHisp"	2	"WhiteGun"	"whiteface1.bmp"	"WEAPON2.bmp"	500	1	489	"white"
101	"RightGun"	"WhiteHisp"	2	"WhiteGun"	"whiteface2.bmp"	"WEAPON1.bmp"	500	1	457	"white"
101	"RightGun"	"WhiteHisp"	2	"HispGun"	"hispFace4.bmp"	"WEAPON3.bmp"	500	1	481	"white"
101	"RightGun"	"WhiteHisp"	2	"WhiteTool"	"whiteface3.bmp"	"TOOL3.bmp"	500	1	425	"white"
101	"RightGun"	"WhiteHisp"	2	"WhiteTool"	"whiteface4.bmp"	"TOOL1.bmp"	1000	0	0	"white"
101	"RightGun"	"WhiteHisp"	2	"WhiteGun"	"whiteface3.bmp"	"WEAPON1.bmp"	500	0	389	"white"
101	"RightGun"	"WhiteHisp"	2	"HispTool"	"hispFace1.bmp"	"TOOL2.bmp"	500	1	453	"white"
101	"RightGun"	"WhiteHisp"	2	"HispGun"	"hispFace2.bmp"	"WEAPON3.bmp"	500	1	485	"white"
101	"RightGun"	"WhiteHisp"	2	"WhiteTool"	"whiteface1.bmp"	"TOOL4.bmp"	500	1	429	"white"
101	"RightGun"	"WhiteHisp"	2	"WhiteTool"	"whiteface4.bmp"	"TOOL1.bmp"	500	1	477	"white"
101	"RightGun"	"WhiteHisp"	2	"WhiteGun"	"whiteface2.bmp"	"WEAPON2.bmp"	500	1	453	"white"
101	"RightGun"	"WhiteHisp"	2	"WhiteGun"	"whiteface3.bmp"	"WEAPON4.bmp"	500	1	405	"white"
101	"RightGun"	"WhiteHisp"	2	"HispTool"	"hispFace3.bmp"	"TOOL3.bmp"	500	1	404	"white"
101	"RightGun"	"WhiteHisp"	2	"HispTool"	"hispFace4.bmp"	"TOOL2.bmp"	500	0	348	"white"
101	"RightGun"	"WhiteHisp"	2	"HispGun"	"hispFace1.bmp"	"WEAPON1.bmp"	500	1	324	"white"
101	"RightGun"	"WhiteHisp"	2	"WhiteGun"	"whiteface4.bmp"	"WEAPON3.bmp"	500	1	444	"white"
101	"RightGun"	"WhiteHisp"	2	"HispGun"	"hispFace2.bmp"	"WEAPON4.bmp"	500	1	468	"white"
101	"RightGun"	"WhiteHisp"	2	"WhiteTool"	"whiteface2.bmp"	"TOOL4.bmp"	1000	1	540	"white"
101	"RightGun"	"WhiteHisp"	2	"WhiteTool"	"whiteface1.bmp"	"TOOL1.bmp"	1000	1	528	"white"
101	"RightGun"	"WhiteHisp"	2	"HispTool"	"hispFace3.bmp"	"TOOL3.bmp"	500	1	331	"white"
101	"RightGun"	"WhiteHisp"	2	"WhiteGun"	"whiteface3.bmp"	"WEAPON2.bmp"	500	1	427	"white"
101	"RightGun"	"WhiteHisp"	2	"WhiteGun"	"whiteface4.bmp"	"WEAPON2.bmp"	500	1	403	"white"
101	"RightGun"	"WhiteHisp"	2	"WhiteTool"	"whiteface1.bmp"	"TOOL4.bmp"	500	1	443	"white"
101	"RightGun"	"WhiteHisp"	2	"HispGun"	"hispFace4.bmp"	"WEAPON4.bmp"	500	1	451	"white"
101	"RightGun"	"WhiteHisp"	2	"HispGun"	"hispFace1.bmp"	"WEAPON1.bmp"	500	1	388	"white"
101	"RightGun"	"WhiteHisp"	2	"HispGun"	"hispFace2.bmp"	"WEAPON3.bmp"	500	1	412	"white"
101	"RightGun"	"WhiteHisp"	2	"HispTool"	"hispFace3.bmp"	"TOOL3.bmp"	500	1	412	"white"
101	"RightGun"	"WhiteHisp"	2	"HispGun"	"hispFace4.bmp"	"WEAPON3.bmp"	500	1	348	"white"
101	"RightGun"	"WhiteHisp"	2	"WhiteTool"	"whiteface2.bmp"	"TOOL1.bmp"	500	1	396	"white"
101	"RightGun"	"WhiteHisp"	3	"HispTool"	"hispFace1.bmp"	"TOOL2.bmp"	500	0	442	"white"
101	"RightGun"	"WhiteHisp"	3	"WhiteGun"	"whiteface4.bmp"	"WEAPON2.bmp"	500	1	394	"white"
101	"RightGun"	"WhiteHisp"	3	"WhiteGun"	"whiteface2.bmp"	"WEAPON4.bmp"	500	1	442	"white"
101	"RightGun"	"WhiteHisp"	3	"HispGun"	"hispFace2.bmp"	"WEAPON1.bmp"	500	1	362	"white"
101	"RightGun"	"WhiteHisp"	3	"HispGun"	"hispFace3.bmp"	"WEAPON2.bmp"	500	1	370	"white"
101	"RightGun"	"WhiteHisp"	3	"HispTool"	"hispFace4.bmp"	"TOOL1.bmp"	1000	1	506	"white"
101	"RightGun"	"WhiteHisp"	3	"WhiteTool"	"whiteface3.bmp"	"TOOL2.bmp"	500	1	445	"white"
101	"RightGun"	"WhiteHisp"	3	"HispGun"	"hispFace1.bmp"	"WEAPON3.bmp"	1000	1	517	"white"
101	"RightGun"	"WhiteHisp"	3	"WhiteTool"	"whiteface1.bmp"	"TOOL4.bmp"	500	1	465	"white"
101	"RightGun"	"WhiteHisp"	3	"WhiteGun"	"whiteface4.bmp"	"WEAPON1.bmp"	500	1	417	"white"
101	"RightGun"	"WhiteHisp"	3	"WhiteTool"	"whiteface1.bmp"	"TOOL3.bmp"	500	1	441	"white"
101	"RightGun"	"WhiteHisp"	3	"WhiteGun"	"whiteface2.bmp"	"WEAPON4.bmp"	500	1	449	"white"
101	"RightGun"	"WhiteHisp"	3	"WhiteGun"	"whiteface3.bmp"	"WEAPON4.bmp"	500	1	401	"white"
101	"RightGun"	"WhiteHisp"	3	"WhiteTool"	"whiteface3.bmp"	"TOOL1.bmp"	500	1	409	"white"
101	"RightGun"	"WhiteHisp"	3	"WhiteTool"	"whiteface2.bmp"	"TOOL3.bmp"	500	1	369	"white"
101	"RightGun"	"WhiteHisp"	3	"HispTool"	"hispFace2.bmp"	"TOOL4.bmp"	1000	1	609	"white"
101	"RightGun"	"WhiteHisp"	3	"HispTool"	"hispFace3.bmp"	"TOOL2.bmp"	500	1	443	"white"
101	"RightGun"	"WhiteHisp"	3	"WhiteGun"	"whiteface1.bmp"	"WEAPON2.bmp"	500	1	460	"white"
101	"RightGun"	"WhiteHisp"	3	"WhiteTool"	"whiteface4.bmp"	"TOOL1.bmp"	500	1	468	"white"
101	"RightGun"	"WhiteHisp"	3	"HispGun"	"hispFace4.bmp"	"WEAPON3.bmp"	1000	1	524	"white"
101	"RightGun"	"WhiteHisp"	3	"HispTool"	"hispFace1.bmp"	"TOOL4.bmp"	500	1	496	"white"
101	"RightGun"	"WhiteHisp"	3	"HispGun"	"hispFace2.bmp"	"WEAPON1.bmp"	500	1	464	"white"
101	"RightGun"	"WhiteHisp"	3	"HispTool"	"hispFace3.bmp"	"TOOL3.bmp"	500	1	408	"white"
101	"RightGun"	"WhiteHisp"	3	"WhiteTool"	"whiteface2.bmp"	"TOOL2.bmp"	500	1	488	"white"
101	"RightGun"	"WhiteHisp"	3	"HispTool"	"hispFace4.bmp"	"TOOL2.bmp"	500	1	400	"white"
101	"RightGun"	"WhiteHisp"	3	"WhiteGun"	"whiteface4.bmp"	"WEAPON3.bmp"	1000	1	552	"white"
101	"RightGun"	"WhiteHisp"	3	"HispTool"	"hispFace1.bmp"	"TOOL1.bmp"	500	1	467	"white"
101	"RightGun"	"WhiteHisp"	3	"HispTool"	"hispFace2.bmp"	"TOOL3.bmp"	500	1	467	"white"
101	"RightGun"	"WhiteHisp"	3	"HispGun"	"hispFace3.bmp"	"WEAPON1.bmp"	1000	1	516	"white"
101	"RightGun"	"WhiteHisp"	3	"WhiteGun"	"whiteface3.bmp"	"WEAPON4.bmp"	500	1	432	"white"
101	"RightGun"	"WhiteHisp"	3	"HispGun"	"hispFace4.bmp"	"WEAPON2.bmp"	500	1	400	"white"
101	"RightGun"	"WhiteHisp"	3	"WhiteTool"	"whiteface1.bmp"	"TOOL4.bmp"	500	0	352	"white"
101	"RightGun"	"WhiteHisp"	3	"WhiteGun"	"whiteface3.bmp"	"WEAPON2.bmp"	500	1	415	"white"
101	"RightGun"	"WhiteHisp"	3	"WhiteTool"	"whiteface4.bmp"	"TOOL2.bmp"	500	0	287	"white"
101	"RightGun"	"WhiteHisp"	3	"HispGun"	"hispFace1.bmp"	"WEAPON3.bmp"	500	1	367	"white"
101	"RightGun"	"WhiteHisp"	3	"HispGun"	"hispFace2.bmp"	"WEAPON1.bmp"	500	1	399	"white"
101	"RightGun"	"WhiteHisp"	3	"WhiteTool"	"whiteface1.bmp"	"TOOL3.bmp"	500	1	495	"white"
101	"RightGun"	"WhiteHisp"	3	"HispTool"	"hispFace3.bmp"	"TOOL1.bmp"	500	1	439	"white"
101	"RightGun"	"WhiteHisp"	3	"WhiteTool"	"whiteface2.bmp"	"TOOL4.bmp"	500	1	471	"white"
101	"RightGun"	"WhiteHisp"	3	"WhiteTool"	"whiteface3.bmp"	"TOOL4.bmp"	500	1	431	"white"
101	"RightGun"	"WhiteHisp"	3	"HispGun"	"hispFace4.bmp"	"WEAPON4.bmp"	500	1	407	"white"
101	"RightGun"	"WhiteHisp"	3	"HispTool"	"hispFace1.bmp"	"TOOL2.bmp"	500	1	407	"white"
101	"RightGun"	"WhiteHisp"	3	"WhiteGun"	"whiteface4.bmp"	"WEAPON4.bmp"	500	0	343	"white"
101	"RightGun"	"WhiteHisp"	3	"HispTool"	"hispFace2.bmp"	"TOOL1.bmp"	500	1	431	"white"
101	"RightGun"	"WhiteHisp"	3	"HispGun"	"hispFace3.bmp"	"WEAPON3.bmp"	500	1	399	"white"
101	"RightGun"	"WhiteHisp"	3	"WhiteTool"	"whiteface2.bmp"	"TOOL3.bmp"	500	1	432	"white"
101	"RightGun"	"WhiteHisp"	3	"HispTool"	"hispFace4.bmp"	"TOOL3.bmp"	500	1	376	"white"
101	"RightGun"	"WhiteHisp"	3	"WhiteGun"	"whiteface1.bmp"	"WEAPON1.bmp"	500	1	360	"white"
101	"RightGun"	"WhiteHisp"	3	"WhiteGun"	"whiteface1.bmp"	"WEAPON2.bmp"	500	1	416	"white"
101	"RightGun"	"WhiteHisp"	3	"HispTool"	"hispFace1.bmp"	"TOOL4.bmp"	1000	1	616	"white"
101	"RightGun"	"WhiteHisp"	3	"HispTool"	"hispFace2.bmp"	"TOOL1.bmp"	500	1	482	"white"
101	"RightGun"	"WhiteHisp"	3	"HispGun"	"hispFace3.bmp"	"WEAPON4.bmp"	500	1	410	"white"
101	"RightGun"	"WhiteHisp"	3	"HispTool"	"hispFace4.bmp"	"TOOL2.bmp"	1000	1	514	"white"
101	"RightGun"	"WhiteHisp"	3	"HispGun"	"hispFace1.bmp"	"WEAPON3.bmp"	500	1	390	"white"
101	"RightGun"	"WhiteHisp"	3	"HispGun"	"hispFace2.bmp"	"WEAPON1.bmp"	1000	0	502	"white"
101	"RightGun"	"WhiteHisp"	3	"WhiteTool"	"whiteface4.bmp"	"TOOL3.bmp"	500	1	401	"white"
101	"RightGun"	"WhiteHisp"	3	"WhiteGun"	"whiteface2.bmp"	"WEAPON2.bmp"	500	1	481	"white"
101	"RightGun"	"WhiteHisp"	3	"HispGun"	"hispFace3.bmp"	"WEAPON2.bmp"	1000	1	545	"white"
101	"RightGun"	"WhiteHisp"	3	"WhiteTool"	"whiteface3.bmp"	"TOOL1.bmp"	500	1	461	"white"
101	"RightGun"	"WhiteHisp"	3	"WhiteTool"	"whiteface4.bmp"	"TOOL2.bmp"	1000	1	517	"white"
101	"RightGun"	"WhiteHisp"	3	"WhiteTool"	"whiteface2.bmp"	"TOOL4.bmp"	500	1	408	"white"
101	"RightGun"	"WhiteHisp"	3	"WhiteTool"	"whiteface1.bmp"	"TOOL2.bmp"	500	1	392	"white"
101	"RightGun"	"WhiteHisp"	3	"HispTool"	"hispFace4.bmp"	"TOOL3.bmp"	500	1	384	"white"
101	"RightGun"	"WhiteHisp"	3	"HispTool"	"hispFace1.bmp"	"TOOL4.bmp"	500	1	392	"white"
101	"RightGun"	"WhiteHisp"	3	"WhiteTool"	"whiteface3.bmp"	"TOOL1.bmp"	500	1	452	"white"
101	"RightGun"	"WhiteHisp"	3	"WhiteTool"	"whiteface3.bmp"	"TOOL2.bmp"	500	1	396	"white"
101	"RightGun"	"WhiteHisp"	3	"WhiteGun"	"whiteface4.bmp"	"WEAPON4.bmp"	500	0	363	"white"
101	"RightGun"	"WhiteHisp"	3	"HispTool"	"hispFace2.bmp"	"TOOL1.bmp"	500	1	419	"white"
101	"RightGun"	"WhiteHisp"	3	"WhiteGun"	"whiteface1.bmp"	"WEAPON1.bmp"	500	1	339	"white"
101	"RightGun"	"WhiteHisp"	3	"HispTool"	"hispFace3.bmp"	"TOOL3.bmp"	500	1	411	"white"
101	"RightGun"	"WhiteHisp"	3	"HispGun"	"hispFace4.bmp"	"WEAPON3.bmp"	500	1	427	"white"
101	"RightGun"	"WhiteHisp"	3	"HispGun"	"hispFace1.bmp"	"WEAPON1.bmp"	1000	1	507	"white"
101	"RightGun"	"WhiteHisp"	3	"HispGun"	"hispFace2.bmp"	"WEAPON3.bmp"	500	1	382	"white"
101	"RightGun"	"WhiteHisp"	3	"WhiteGun"	"whiteface2.bmp"	"WEAPON2.bmp"	500	1	439	"white"
101	"RightGun"	"WhiteHisp"	3	"HispGun"	"hispFace3.bmp"	"WEAPON4.bmp"	500	1	439	"white"
101	"RightGun"	"WhiteHisp"	3	"WhiteTool"	"whiteface2.bmp"	"TOOL4.bmp"	500	0	359	"white"
101	"RightGun"	"WhiteHisp"	3	"WhiteGun"	"whiteface4.bmp"	"WEAPON1.bmp"	500	1	407	"white"
101	"RightGun"	"WhiteHisp"	3	"WhiteTool"	"whiteface1.bmp"	"TOOL1.bmp"	500	1	487	"white"
101	"RightGun"	"WhiteHisp"	3	"HispTool"	"hispFace4.bmp"	"TOOL4.bmp"	500	1	439	"white"
101	"RightGun"	"WhiteHisp"	3	"WhiteGun"	"whiteface3.bmp"	"WEAPON4.bmp"	500	0	311	"white"
101	"RightGun"	"WhiteHisp"	3	"WhiteTool"	"whiteface3.bmp"	"TOOL3.bmp"	500	1	431	"white"
101	"RightGun"	"WhiteHisp"	3	"WhiteTool"	"whiteface1.bmp"	"TOOL2.bmp"	500	1	455	"white"
101	"RightGun"	"WhiteHisp"	3	"HispTool"	"hispFace1.bmp"	"TOOL2.bmp"	500	1	470	"white"
101	"RightGun"	"WhiteHisp"	3	"WhiteGun"	"whiteface4.bmp"	"WEAPON2.bmp"	500	1	438	"white"
101	"RightGun"	"WhiteHisp"	3	"WhiteGun"	"whiteface2.bmp"	"WEAPON3.bmp"	500	1	349	"white"
101	"RightGun"	"WhiteHisp"	3	"HispTool"	"hispFace2.bmp"	"TOOL3.bmp"	500	1	405	"white"
101	"RightGun"	"WhiteHisp"	3	"HispGun"	"hispFace3.bmp"	"WEAPON2.bmp"	500	1	405	"white"
101	"RightGun"	"WhiteHisp"	3	"WhiteGun"	"whiteface2.bmp"	"WEAPON4.bmp"	500	1	461	"white"
101	"RightGun"	"WhiteHisp"	3	"HispGun"	"hispFace4.bmp"	"WEAPON3.bmp"	500	1	405	"white"
101	"RightGun"	"WhiteHisp"	3	"HispTool"	"hispFace1.bmp"	"TOOL4.bmp"	500	1	461	"white"
101	"RightGun"	"WhiteHisp"	3	"WhiteGun"	"whiteface1.bmp"	"WEAPON1.bmp"	500	1	333	"white"
101	"RightGun"	"WhiteHisp"	3	"WhiteGun"	"whiteface4.bmp"	"WEAPON4.bmp"	500	1	477	"white"
101	"RightGun"	"WhiteHisp"	3	"HispGun"	"hispFace2.bmp"	"WEAPON3.bmp"	500	1	429	"white"
101	"RightGun"	"WhiteHisp"	3	"WhiteGun"	"whiteface3.bmp"	"WEAPON2.bmp"	500	0	445	"white"
101	"RightGun"	"WhiteHisp"	3	"HispTool"	"hispFace3.bmp"	"TOOL1.bmp"	500	1	461	"white"
101	"RightGun"	"WhiteHisp"	3	"HispGun"	"hispFace4.bmp"	"WEAPON1.bmp"	500	1	453	"white"
101	"RightGun"	"WhiteHisp"	4	"HispTool"	"hispFace1.bmp"	"TOOL4.bmp"	1000	1	638	"white"
101	"RightGun"	"WhiteHisp"	4	"WhiteGun"	"whiteface4.bmp"	"WEAPON3.bmp"	500	1	418	"white"
101	"RightGun"	"WhiteHisp"	4	"HispGun"	"hispFace2.bmp"	"WEAPON2.bmp"	500	1	458	"white"
101	"RightGun"	"WhiteHisp"	4	"HispTool"	"hispFace3.bmp"	"TOOL2.bmp"	500	1	450	"white"
101	"RightGun"	"WhiteHisp"	4	"HispGun"	"hispFace4.bmp"	"WEAPON1.bmp"	500	1	466	"white"
101	"RightGun"	"WhiteHisp"	4	"HispGun"	"hispFace1.bmp"	"WEAPON4.bmp"	1000	1	529	"white"
101	"RightGun"	"WhiteHisp"	4	"WhiteGun"	"whiteface1.bmp"	"WEAPON3.bmp"	500	1	364	"white"
101	"RightGun"	"WhiteHisp"	4	"HispTool"	"hispFace2.bmp"	"TOOL3.bmp"	500	1	476	"white"
101	"RightGun"	"WhiteHisp"	4	"WhiteTool"	"whiteface3.bmp"	"TOOL1.bmp"	500	1	492	"white"
101	"RightGun"	"WhiteHisp"	4	"WhiteGun"	"whiteface2.bmp"	"WEAPON2.bmp"	1000	1	516	"white"
101	"RightGun"	"WhiteHisp"	4	"WhiteGun"	"whiteface1.bmp"	"WEAPON1.bmp"	500	1	391	"white"
101	"RightGun"	"WhiteHisp"	4	"HispGun"	"hispFace3.bmp"	"WEAPON4.bmp"	500	1	495	"white"
101	"RightGun"	"WhiteHisp"	4	"HispTool"	"hispFace4.bmp"	"TOOL1.bmp"	1000	1	575	"white"
101	"RightGun"	"WhiteHisp"	4	"WhiteGun"	"whiteface4.bmp"	"WEAPON2.bmp"	1000	1	523	"white"
101	"RightGun"	"WhiteHisp"	4	"HispGun"	"hispFace1.bmp"	"WEAPON4.bmp"	500	1	415	"white"
101	"RightGun"	"WhiteHisp"	4	"HispGun"	"hispFace2.bmp"	"WEAPON1.bmp"	500	1	439	"white"
101	"RightGun"	"WhiteHisp"	4	"WhiteTool"	"whiteface3.bmp"	"TOOL4.bmp"	500	1	439	"white"
101	"RightGun"	"WhiteHisp"	4	"WhiteTool"	"whiteface2.bmp"	"TOOL2.bmp"	500	1	471	"white"
101	"RightGun"	"WhiteHisp"	4	"HispGun"	"hispFace3.bmp"	"WEAPON3.bmp"	500	1	391	"white"
101	"RightGun"	"WhiteHisp"	4	"WhiteTool"	"whiteface4.bmp"	"TOOL3.bmp"	1000	1	519	"white"
101	"RightGun"	"WhiteHisp"	4	"HispTool"	"hispFace4.bmp"	"TOOL2.bmp"	500	0	410	"white"
101	"RightGun"	"WhiteHisp"	4	"HispTool"	"hispFace1.bmp"	"TOOL1.bmp"	1000	1	546	"white"
101	"RightGun"	"WhiteHisp"	4	"WhiteGun"	"whiteface2.bmp"	"WEAPON1.bmp"	500	1	388	"white"
101	"RightGun"	"WhiteHisp"	4	"WhiteGun"	"whiteface1.bmp"	"WEAPON4.bmp"	500	1	460	"white"
101	"RightGun"	"WhiteHisp"	4	"WhiteTool"	"whiteface3.bmp"	"TOOL4.bmp"	500	1	404	"white"
101	"RightGun"	"WhiteHisp"	4	"WhiteTool"	"whiteface1.bmp"	"TOOL3.bmp"	500	1	396	"white"
101	"RightGun"	"WhiteHisp"	4	"HispTool"	"hispFace2.bmp"	"TOOL1.bmp"	500	1	460	"white"
101	"RightGun"	"WhiteHisp"	4	"HispTool"	"hispFace3.bmp"	"TOOL3.bmp"	500	1	388	"white"
101	"RightGun"	"WhiteHisp"	4	"HispGun"	"hispFace4.bmp"	"WEAPON3.bmp"	500	1	445	"white"
101	"RightGun"	"WhiteHisp"	4	"HispTool"	"hispFace1.bmp"	"TOOL4.bmp"	500	1	469	"white"
101	"RightGun"	"WhiteHisp"	4	"HispTool"	"hispFace2.bmp"	"TOOL2.bmp"	500	1	389	"white"
101	"RightGun"	"WhiteHisp"	4	"WhiteTool"	"whiteface4.bmp"	"TOOL2.bmp"	500	1	381	"white"
101	"RightGun"	"WhiteHisp"	4	"HispTool"	"hispFace3.bmp"	"TOOL4.bmp"	500	1	386	"white"
101	"RightGun"	"WhiteHisp"	4	"HispGun"	"hispFace4.bmp"	"WEAPON2.bmp"	500	0	378	"white"
101	"RightGun"	"WhiteHisp"	4	"WhiteTool"	"whiteface3.bmp"	"TOOL1.bmp"	500	1	442	"white"
101	"RightGun"	"WhiteHisp"	4	"HispGun"	"hispFace1.bmp"	"WEAPON2.bmp"	500	0	442	"white"
101	"RightGun"	"WhiteHisp"	4	"WhiteTool"	"whiteface2.bmp"	"TOOL3.bmp"	500	1	450	"white"
101	"RightGun"	"WhiteHisp"	4	"HispGun"	"hispFace2.bmp"	"WEAPON1.bmp"	500	1	410	"white"
101	"RightGun"	"WhiteHisp"	4	"WhiteGun"	"whiteface4.bmp"	"WEAPON3.bmp"	500	1	386	"white"
101	"RightGun"	"WhiteHisp"	4	"WhiteTool"	"whiteface3.bmp"	"TOOL1.bmp"	500	1	433	"white"
101	"RightGun"	"WhiteHisp"	4	"WhiteGun"	"whiteface2.bmp"	"WEAPON4.bmp"	500	1	425	"white"
101	"RightGun"	"WhiteHisp"	4	"WhiteGun"	"whiteface1.bmp"	"WEAPON4.bmp"	500	1	473	"white"
101	"RightGun"	"WhiteHisp"	4	"WhiteGun"	"whiteface1.bmp"	"WEAPON1.bmp"	500	1	369	"white"
101	"RightGun"	"WhiteHisp"	4	"HispGun"	"hispFace3.bmp"	"WEAPON3.bmp"	500	1	393	"white"
101	"RightGun"	"WhiteHisp"	4	"WhiteTool"	"whiteface3.bmp"	"TOOL2.bmp"	500	1	457	"white"
101	"RightGun"	"WhiteHisp"	4	"HispTool"	"hispFace4.bmp"	"TOOL4.bmp"	1000	1	505	"white"
101	"RightGun"	"WhiteHisp"	4	"HispGun"	"hispFace1.bmp"	"WEAPON2.bmp"	500	1	405	"white"
101	"RightGun"	"WhiteHisp"	4	"HispTool"	"hispFace2.bmp"	"TOOL3.bmp"	500	1	429	"white"
101	"RightGun"	"WhiteHisp"	4	"WhiteTool"	"whiteface2.bmp"	"TOOL2.bmp"	500	1	413	"white"
101	"RightGun"	"WhiteHisp"	4	"HispGun"	"hispFace3.bmp"	"WEAPON1.bmp"	500	1	453	"white"
101	"RightGun"	"WhiteHisp"	4	"WhiteGun"	"whiteface4.bmp"	"WEAPON2.bmp"	500	0	405	"white"
101	"RightGun"	"WhiteHisp"	4	"HispTool"	"hispFace4.bmp"	"TOOL4.bmp"	500	1	421	"white"
101	"RightGun"	"WhiteHisp"	4	"WhiteTool"	"whiteface3.bmp"	"TOOL3.bmp"	500	1	405	"white"
101	"RightGun"	"WhiteHisp"	4	"HispGun"	"hispFace1.bmp"	"WEAPON3.bmp"	500	1	365	"white"
101	"RightGun"	"WhiteHisp"	4	"WhiteTool"	"whiteface1.bmp"	"TOOL1.bmp"	500	1	445	"white"
101	"RightGun"	"WhiteHisp"	4	"HispTool"	"hispFace2.bmp"	"TOOL2.bmp"	500	0	365	"white"
101	"RightGun"	"WhiteHisp"	4	"WhiteTool"	"whiteface2.bmp"	"TOOL3.bmp"	500	1	460	"white"
101	"RightGun"	"WhiteHisp"	4	"WhiteGun"	"whiteface4.bmp"	"WEAPON4.bmp"	500	1	484	"white"
101	"RightGun"	"WhiteHisp"	4	"WhiteGun"	"whiteface3.bmp"	"WEAPON4.bmp"	500	1	452	"white"
101	"RightGun"	"WhiteHisp"	4	"HispGun"	"hispFace3.bmp"	"WEAPON2.bmp"	1000	1	508	"white"
101	"RightGun"	"WhiteHisp"	4	"WhiteGun"	"whiteface2.bmp"	"WEAPON3.bmp"	500	1	352	"white"
101	"RightGun"	"WhiteHisp"	4	"WhiteTool"	"whiteface1.bmp"	"TOOL1.bmp"	500	1	448	"white"
101	"RightGun"	"WhiteHisp"	4	"HispTool"	"hispFace4.bmp"	"TOOL4.bmp"	500	1	464	"white"
101	"RightGun"	"WhiteHisp"	4	"WhiteGun"	"whiteface4.bmp"	"WEAPON1.bmp"	500	1	424	"white"
101	"RightGun"	"WhiteHisp"	4	"HispTool"	"hispFace1.bmp"	"TOOL2.bmp"	1000	1	577	"white"
101	"RightGun"	"WhiteHisp"	4	"HispGun"	"hispFace2.bmp"	"WEAPON4.bmp"	500	1	445	"white"
101	"RightGun"	"WhiteHisp"	4	"HispTool"	"hispFace3.bmp"	"TOOL4.bmp"	500	1	461	"white"
101	"RightGun"	"WhiteHisp"	4	"WhiteTool"	"whiteface4.bmp"	"TOOL1.bmp"	500	1	461	"white"
101	"RightGun"	"WhiteHisp"	4	"WhiteTool"	"whiteface1.bmp"	"TOOL3.bmp"	500	1	421	"white"
101	"RightGun"	"WhiteHisp"	4	"HispTool"	"hispFace4.bmp"	"TOOL3.bmp"	500	1	413	"white"
101	"RightGun"	"WhiteHisp"	4	"WhiteTool"	"whiteface2.bmp"	"TOOL4.bmp"	500	1	429	"white"
101	"RightGun"	"WhiteHisp"	4	"WhiteGun"	"whiteface3.bmp"	"WEAPON1.bmp"	1000	1	573	"white"
101	"RightGun"	"WhiteHisp"	4	"WhiteGun"	"whiteface3.bmp"	"WEAPON3.bmp"	500	0	400	"white"
101	"RightGun"	"WhiteHisp"	4	"WhiteGun"	"whiteface2.bmp"	"WEAPON2.bmp"	1000	1	543	"white"
101	"RightGun"	"WhiteHisp"	4	"WhiteTool"	"whiteface1.bmp"	"TOOL1.bmp"	500	1	419	"white"
101	"RightGun"	"WhiteHisp"	4	"HispTool"	"hispFace1.bmp"	"TOOL2.bmp"	1000	1	507	"white"
101	"RightGun"	"WhiteHisp"	4	"WhiteTool"	"whiteface4.bmp"	"TOOL2.bmp"	500	1	414	"white"
101	"RightGun"	"WhiteHisp"	4	"WhiteGun"	"whiteface1.bmp"	"WEAPON3.bmp"	500	1	454	"white"
101	"RightGun"	"WhiteHisp"	4	"HispTool"	"hispFace2.bmp"	"TOOL1.bmp"	500	1	478	"white"
101	"RightGun"	"WhiteHisp"	4	"WhiteGun"	"whiteface2.bmp"	"WEAPON4.bmp"	500	1	438	"white"
101	"RightGun"	"WhiteHisp"	4	"WhiteTool"	"whiteface4.bmp"	"TOOL3.bmp"	500	1	431	"white"
101	"RightGun"	"WhiteHisp"	4	"HispGun"	"hispFace3.bmp"	"WEAPON2.bmp"	500	1	447	"white"
101	"RightGun"	"WhiteHisp"	4	"HispTool"	"hispFace4.bmp"	"TOOL4.bmp"	500	1	415	"white"
101	"RightGun"	"WhiteHisp"	4	"HispTool"	"hispFace1.bmp"	"TOOL3.bmp"	500	0	327	"white"
101	"RightGun"	"WhiteHisp"	4	"HispTool"	"hispFace2.bmp"	"TOOL1.bmp"	500	1	479	"white"
101	"RightGun"	"WhiteHisp"	4	"HispGun"	"hispFace3.bmp"	"WEAPON1.bmp"	500	1	383	"white"
101	"RightGun"	"WhiteHisp"	4	"WhiteGun"	"whiteface3.bmp"	"WEAPON2.bmp"	500	1	455	"white"
101	"RightGun"	"WhiteHisp"	4	"HispGun"	"hispFace4.bmp"	"WEAPON4.bmp"	500	1	447	"white"
101	"RightGun"	"WhiteHisp"	4	"HispTool"	"hispFace1.bmp"	"TOOL4.bmp"	500	1	495	"white"
101	"RightGun"	"WhiteHisp"	4	"HispTool"	"hispFace2.bmp"	"TOOL2.bmp"	1000	1	503	"white"
101	"RightGun"	"WhiteHisp"	4	"WhiteGun"	"whiteface4.bmp"	"WEAPON1.bmp"	500	1	370	"white"
101	"RightGun"	"WhiteHisp"	4	"HispTool"	"hispFace3.bmp"	"TOOL3.bmp"	500	1	426	"white"
101	"RightGun"	"WhiteHisp"	4	"HispGun"	"hispFace4.bmp"	"WEAPON3.bmp"	500	1	434	"white"
101	"RightGun"	"WhiteHisp"	4	"HispTool"	"hispFace1.bmp"	"TOOL4.bmp"	500	1	442	"white"
101	"RightGun"	"WhiteHisp"	4	"WhiteGun"	"whiteface2.bmp"	"WEAPON3.bmp"	500	1	450	"white"
101	"RightGun"	"WhiteHisp"	4	"WhiteGun"	"whiteface3.bmp"	"WEAPON1.bmp"	500	1	458	"white"
102	"LeftGun"	"WhiteHisp"	2	"WhiteGun"	"whiteface1.bmp"	"WEAPON2.bmp"	1000	1	536	"white"
102	"LeftGun"	"WhiteHisp"	2	"HispGun"	"hispFace1.bmp"	"WEAPON3.bmp"	500	1	452	"white"
102	"LeftGun"	"WhiteHisp"	2	"WhiteTool"	"whiteface2.bmp"	"TOOL2.bmp"	1000	1	564	"white"
102	"LeftGun"	"WhiteHisp"	2	"HispTool"	"hispFace2.bmp"	"TOOL4.bmp"	500	0	399	"white"
102	"LeftGun"	"WhiteHisp"	2	"HispTool"	"hispFace3.bmp"	"TOOL1.bmp"	500	0	471	"white"
102	"LeftGun"	"WhiteHisp"	2	"WhiteTool"	"whiteface3.bmp"	"TOOL3.bmp"	500	0	463	"white"
102	"LeftGun"	"WhiteHisp"	2	"WhiteTool"	"whiteface4.bmp"	"TOOL3.bmp"	1000	1	559	"white"
102	"LeftGun"	"WhiteHisp"	2	"HispTool"	"hispFace4.bmp"	"TOOL1.bmp"	500	0	474	"white"
102	"LeftGun"	"WhiteHisp"	2	"WhiteGun"	"whiteface4.bmp"	"WEAPON1.bmp"	1000	1	554	"white"
102	"LeftGun"	"WhiteHisp"	2	"HispTool"	"hispFace1.bmp"	"TOOL2.bmp"	500	1	445	"white"
102	"LeftGun"	"WhiteHisp"	2	"WhiteGun"	"whiteface3.bmp"	"WEAPON4.bmp"	500	1	421	"white"
102	"LeftGun"	"WhiteHisp"	2	"HispGun"	"hispFace2.bmp"	"WEAPON3.bmp"	500	1	477	"white"
102	"LeftGun"	"WhiteHisp"	2	"WhiteTool"	"whiteface1.bmp"	"TOOL4.bmp"	1000	0	0	"white"
102	"LeftGun"	"WhiteHisp"	2	"WhiteTool"	"whiteface2.bmp"	"TOOL4.bmp"	1000	1	672	"white"
102	"LeftGun"	"WhiteHisp"	2	"WhiteGun"	"whiteface2.bmp"	"WEAPON4.bmp"	500	1	444	"white"
102	"LeftGun"	"WhiteHisp"	2	"WhiteTool"	"whiteface1.bmp"	"TOOL2.bmp"	1000	1	508	"white"
102	"LeftGun"	"WhiteHisp"	2	"HispTool"	"hispFace3.bmp"	"TOOL1.bmp"	1000	0	663	"white"
102	"LeftGun"	"WhiteHisp"	2	"WhiteTool"	"whiteface3.bmp"	"TOOL3.bmp"	500	1	475	"white"
102	"LeftGun"	"WhiteHisp"	2	"WhiteGun"	"whiteface4.bmp"	"WEAPON2.bmp"	500	1	467	"white"
102	"LeftGun"	"WhiteHisp"	2	"HispTool"	"hispFace4.bmp"	"TOOL4.bmp"	500	1	499	"white"
102	"LeftGun"	"WhiteHisp"	2	"WhiteTool"	"whiteface2.bmp"	"TOOL2.bmp"	1000	1	635	"white"
102	"LeftGun"	"WhiteHisp"	2	"HispGun"	"hispFace1.bmp"	"WEAPON1.bmp"	1000	1	526	"white"
102	"LeftGun"	"WhiteHisp"	2	"WhiteGun"	"whiteface1.bmp"	"WEAPON4.bmp"	1000	1	537	"white"
102	"LeftGun"	"WhiteHisp"	2	"WhiteGun"	"whiteface4.bmp"	"WEAPON2.bmp"	1000	1	516	"white"
102	"LeftGun"	"WhiteHisp"	2	"WhiteTool"	"whiteface3.bmp"	"TOOL1.bmp"	500	1	440	"white"
102	"LeftGun"	"WhiteHisp"	2	"HispGun"	"hispFace2.bmp"	"WEAPON3.bmp"	500	1	440	"white"
102	"LeftGun"	"WhiteHisp"	2	"HispGun"	"hispFace3.bmp"	"WEAPON1.bmp"	500	1	480	"white"
102	"LeftGun"	"WhiteHisp"	2	"HispTool"	"hispFace4.bmp"	"TOOL3.bmp"	500	1	448	"white"
102	"LeftGun"	"WhiteHisp"	2	"WhiteTool"	"whiteface1.bmp"	"TOOL3.bmp"	500	0	480	"white"
102	"LeftGun"	"WhiteHisp"	2	"WhiteGun"	"whiteface4.bmp"	"WEAPON2.bmp"	500	1	408	"white"
102	"LeftGun"	"WhiteHisp"	2	"HispGun"	"hispFace1.bmp"	"WEAPON3.bmp"	500	0	440	"white"
102	"LeftGun"	"WhiteHisp"	2	"HispGun"	"hispFace2.bmp"	"WEAPON1.bmp"	500	1	432	"white"
102	"LeftGun"	"WhiteHisp"	2	"WhiteTool"	"whiteface2.bmp"	"TOOL1.bmp"	1000	1	579	"white"
102	"LeftGun"	"WhiteHisp"	2	"HispGun"	"hispFace3.bmp"	"WEAPON4.bmp"	500	1	358	"white"
102	"LeftGun"	"WhiteHisp"	2	"HispTool"	"hispFace4.bmp"	"TOOL4.bmp"	500	1	462	"white"
102	"LeftGun"	"WhiteHisp"	2	"WhiteGun"	"whiteface3.bmp"	"WEAPON4.bmp"	1000	1	653	"white"
102	"LeftGun"	"WhiteHisp"	2	"HispGun"	"hispFace1.bmp"	"WEAPON2.bmp"	500	1	425	"white"
102	"LeftGun"	"WhiteHisp"	2	"HispGun"	"hispFace2.bmp"	"WEAPON3.bmp"	1000	1	545	"white"
102	"LeftGun"	"WhiteHisp"	2	"WhiteGun"	"whiteface4.bmp"	"WEAPON1.bmp"	500	1	388	"white"
102	"LeftGun"	"WhiteHisp"	2	"WhiteTool"	"whiteface2.bmp"	"TOOL2.bmp"	500	1	436	"white"
102	"LeftGun"	"WhiteHisp"	2	"HispTool"	"hispFace3.bmp"	"TOOL1.bmp"	500	0	444	"white"
102	"LeftGun"	"WhiteHisp"	2	"HispGun"	"hispFace4.bmp"	"WEAPON2.bmp"	500	0	381	"white"
102	"LeftGun"	"WhiteHisp"	2	"WhiteTool"	"whiteface3.bmp"	"TOOL2.bmp"	500	1	429	"white"
102	"LeftGun"	"WhiteHisp"	2	"HispGun"	"hispFace1.bmp"	"WEAPON3.bmp"	500	1	373	"white"
102	"LeftGun"	"WhiteHisp"	2	"WhiteGun"	"whiteface1.bmp"	"WEAPON4.bmp"	500	1	445	"white"
102	"LeftGun"	"WhiteHisp"	2	"WhiteTool"	"whiteface1.bmp"	"TOOL4.bmp"	500	1	477	"white"
102	"LeftGun"	"WhiteHisp"	2	"HispGun"	"hispFace2.bmp"	"WEAPON1.bmp"	1000	1	517	"white"
102	"LeftGun"	"WhiteHisp"	2	"WhiteTool"	"whiteface2.bmp"	"TOOL3.bmp"	500	0	432	"white"
102	"LeftGun"	"WhiteHisp"	2	"HispTool"	"hispFace3.bmp"	"TOOL4.bmp"	1000	1	528	"white"
102	"LeftGun"	"WhiteHisp"	2	"HispTool"	"hispFace4.bmp"	"TOOL1.bmp"	500	0	459	"white"
102	"LeftGun"	"WhiteHisp"	2	"HispTool"	"hispFace1.bmp"	"TOOL3.bmp"	1000	0	547	"white"
102	"LeftGun"	"WhiteHisp"	2	"HispGun"	"hispFace2.bmp"	"WEAPON3.bmp"	500	1	406	"white"
102	"LeftGun"	"WhiteHisp"	2	"HispTool"	"hispFace3.bmp"	"TOOL2.bmp"	500	1	406	"white"
102	"LeftGun"	"WhiteHisp"	2	"WhiteGun"	"whiteface3.bmp"	"WEAPON2.bmp"	500	0	446	"white"
102	"LeftGun"	"WhiteHisp"	2	"HispTool"	"hispFace4.bmp"	"TOOL3.bmp"	1000	1	542	"white"
102	"LeftGun"	"WhiteHisp"	2	"WhiteGun"	"whiteface4.bmp"	"WEAPON4.bmp"	1000	1	514	"white"
102	"LeftGun"	"WhiteHisp"	2	"WhiteGun"	"whiteface1.bmp"	"WEAPON1.bmp"	500	1	485	"white"
102	"LeftGun"	"WhiteHisp"	2	"WhiteGun"	"whiteface4.bmp"	"WEAPON3.bmp"	500	1	405	"white"
102	"LeftGun"	"WhiteHisp"	2	"HispTool"	"hispFace1.bmp"	"TOOL1.bmp"	1000	1	509	"white"
102	"LeftGun"	"WhiteHisp"	2	"HispGun"	"hispFace2.bmp"	"WEAPON1.bmp"	500	1	417	"white"
102	"LeftGun"	"WhiteHisp"	2	"WhiteGun"	"whiteface3.bmp"	"WEAPON4.bmp"	1000	1	513	"white"
102	"LeftGun"	"WhiteHisp"	2	"WhiteTool"	"whiteface2.bmp"	"TOOL2.bmp"	500	1	388	"white"
102	"LeftGun"	"WhiteHisp"	2	"HispGun"	"hispFace3.bmp"	"WEAPON2.bmp"	500	0	451	"white"
102	"LeftGun"	"WhiteHisp"	2	"HispTool"	"hispFace4.bmp"	"TOOL4.bmp"	1000	1	555	"white"
102	"LeftGun"	"WhiteHisp"	2	"WhiteTool"	"whiteface3.bmp"	"TOOL4.bmp"	500	1	446	"white"
102	"LeftGun"	"WhiteHisp"	2	"HispGun"	"hispFace1.bmp"	"WEAPON4.bmp"	500	0	478	"white"
102	"LeftGun"	"WhiteHisp"	2	"WhiteTool"	"whiteface2.bmp"	"TOOL2.bmp"	500	1	454	"white"
102	"LeftGun"	"WhiteHisp"	2	"HispTool"	"hispFace2.bmp"	"TOOL3.bmp"	1000	1	503	"white"
102	"LeftGun"	"WhiteHisp"	2	"HispTool"	"hispFace3.bmp"	"TOOL1.bmp"	1000	1	579	"white"
102	"LeftGun"	"WhiteHisp"	2	"HispTool"	"hispFace4.bmp"	"TOOL3.bmp"	500	0	439	"white"
102	"LeftGun"	"WhiteHisp"	2	"HispTool"	"hispFace1.bmp"	"TOOL1.bmp"	500	1	487	"white"
102	"LeftGun"	"WhiteHisp"	2	"HispGun"	"hispFace2.bmp"	"WEAPON1.bmp"	500	1	383	"white"
102	"LeftGun"	"WhiteHisp"	2	"WhiteGun"	"whiteface4.bmp"	"WEAPON2.bmp"	500	0	447	"white"
102	"LeftGun"	"WhiteHisp"	2	"HispGun"	"hispFace3.bmp"	"WEAPON3.bmp"	500	0	471	"white"
102	"LeftGun"	"WhiteHisp"	2	"HispTool"	"hispFace4.bmp"	"TOOL2.bmp"	500	1	423	"white"
102	"LeftGun"	"WhiteHisp"	2	"WhiteGun"	"whiteface1.bmp"	"WEAPON2.bmp"	500	1	438	"white"
102	"LeftGun"	"WhiteHisp"	2	"WhiteTool"	"whiteface3.bmp"	"TOOL4.bmp"	500	0	478	"white"
102	"LeftGun"	"WhiteHisp"	2	"WhiteTool"	"whiteface4.bmp"	"TOOL2.bmp"	500	1	486	"white"
102	"LeftGun"	"WhiteHisp"	2	"WhiteTool"	"whiteface2.bmp"	"TOOL3.bmp"	500	1	358	"white"
102	"LeftGun"	"WhiteHisp"	2	"WhiteGun"	"whiteface1.bmp"	"WEAPON1.bmp"	500	1	430	"white"
102	"LeftGun"	"WhiteHisp"	2	"WhiteGun"	"whiteface4.bmp"	"WEAPON4.bmp"	1000	0	574	"white"
102	"LeftGun"	"WhiteHisp"	2	"WhiteGun"	"whiteface1.bmp"	"WEAPON3.bmp"	500	1	402	"white"
102	"LeftGun"	"WhiteHisp"	2	"HispGun"	"hispFace1.bmp"	"WEAPON4.bmp"	500	1	402	"white"
102	"LeftGun"	"WhiteHisp"	2	"WhiteGun"	"whiteface2.bmp"	"WEAPON3.bmp"	500	1	386	"white"
102	"LeftGun"	"WhiteHisp"	2	"WhiteTool"	"whiteface3.bmp"	"TOOL4.bmp"	500	1	362	"white"
102	"LeftGun"	"WhiteHisp"	2	"WhiteGun"	"whiteface4.bmp"	"WEAPON2.bmp"	500	1	418	"white"
102	"LeftGun"	"WhiteHisp"	2	"WhiteGun"	"whiteface3.bmp"	"WEAPON1.bmp"	500	0	370	"white"
102	"LeftGun"	"WhiteHisp"	2	"HispTool"	"hispFace2.bmp"	"TOOL1.bmp"	500	1	442	"white"
102	"LeftGun"	"WhiteHisp"	2	"WhiteTool"	"whiteface2.bmp"	"TOOL3.bmp"	500	1	450	"white"
102	"LeftGun"	"WhiteHisp"	2	"HispTool"	"hispFace3.bmp"	"TOOL2.bmp"	1000	1	537	"white"
102	"LeftGun"	"WhiteHisp"	2	"WhiteTool"	"whiteface1.bmp"	"TOOL4.bmp"	500	1	445	"white"
102	"LeftGun"	"WhiteHisp"	2	"WhiteTool"	"whiteface2.bmp"	"TOOL1.bmp"	500	1	477	"white"
102	"LeftGun"	"WhiteHisp"	2	"HispTool"	"hispFace4.bmp"	"TOOL3.bmp"	500	1	485	"white"
102	"LeftGun"	"WhiteHisp"	2	"WhiteGun"	"whiteface4.bmp"	"WEAPON2.bmp"	500	1	485	"white"
102	"LeftGun"	"WhiteHisp"	2	"HispTool"	"hispFace1.bmp"	"TOOL2.bmp"	500	1	413	"white"
102	"LeftGun"	"WhiteHisp"	2	"WhiteTool"	"whiteface1.bmp"	"TOOL1.bmp"	500	0	453	"white"
102	"LeftGun"	"WhiteHisp"	3	"WhiteGun"	"whiteface3.bmp"	"WEAPON3.bmp"	1000	1	701	"white"
102	"LeftGun"	"WhiteHisp"	3	"WhiteTool"	"whiteface3.bmp"	"TOOL4.bmp"	1000	1	512	"white"
102	"LeftGun"	"WhiteHisp"	3	"WhiteGun"	"whiteface1.bmp"	"WEAPON1.bmp"	1000	1	516	"white"
102	"LeftGun"	"WhiteHisp"	3	"WhiteGun"	"whiteface2.bmp"	"WEAPON4.bmp"	1000	1	512	"white"
102	"LeftGun"	"WhiteHisp"	3	"HispGun"	"hispFace2.bmp"	"WEAPON2.bmp"	500	1	370	"white"
102	"LeftGun"	"WhiteHisp"	3	"HispGun"	"hispFace3.bmp"	"WEAPON3.bmp"	500	1	330	"white"
102	"LeftGun"	"WhiteHisp"	3	"WhiteGun"	"whiteface4.bmp"	"WEAPON1.bmp"	500	1	362	"white"
102	"LeftGun"	"WhiteHisp"	3	"HispTool"	"hispFace4.bmp"	"TOOL4.bmp"	500	0	346	"white"
102	"LeftGun"	"WhiteHisp"	3	"HispGun"	"hispFace1.bmp"	"WEAPON4.bmp"	500	1	394	"white"
102	"LeftGun"	"WhiteHisp"	3	"WhiteTool"	"whiteface1.bmp"	"TOOL2.bmp"	500	1	330	"white"
102	"LeftGun"	"WhiteHisp"	3	"HispTool"	"hispFace2.bmp"	"TOOL3.bmp"	500	0	346	"white"
102	"LeftGun"	"WhiteHisp"	3	"WhiteTool"	"whiteface4.bmp"	"TOOL1.bmp"	1000	1	514	"white"
102	"LeftGun"	"WhiteHisp"	3	"HispGun"	"hispFace3.bmp"	"WEAPON4.bmp"	500	0	357	"white"
102	"LeftGun"	"WhiteHisp"	3	"WhiteGun"	"whiteface3.bmp"	"WEAPON2.bmp"	500	1	485	"white"
102	"LeftGun"	"WhiteHisp"	3	"WhiteTool"	"whiteface2.bmp"	"TOOL2.bmp"	1000	1	517	"white"
102	"LeftGun"	"WhiteHisp"	3	"HispGun"	"hispFace4.bmp"	"WEAPON1.bmp"	500	0	473	"white"
102	"LeftGun"	"WhiteHisp"	3	"WhiteGun"	"whiteface1.bmp"	"WEAPON3.bmp"	500	1	449	"white"
102	"LeftGun"	"WhiteHisp"	3	"WhiteGun"	"whiteface4.bmp"	"WEAPON3.bmp"	500	1	337	"white"
102	"LeftGun"	"WhiteHisp"	3	"HispGun"	"hispFace1.bmp"	"WEAPON2.bmp"	500	1	401	"white"
102	"LeftGun"	"WhiteHisp"	3	"HispGun"	"hispFace2.bmp"	"WEAPON4.bmp"	500	1	376	"white"
102	"LeftGun"	"WhiteHisp"	3	"HispGun"	"hispFace3.bmp"	"WEAPON1.bmp"	500	0	288	"white"
102	"LeftGun"	"WhiteHisp"	3	"HispGun"	"hispFace4.bmp"	"WEAPON3.bmp"	500	1	416	"white"
102	"LeftGun"	"WhiteHisp"	3	"HispTool"	"hispFace1.bmp"	"TOOL1.bmp"	500	0	336	"white"
102	"LeftGun"	"WhiteHisp"	3	"WhiteTool"	"whiteface2.bmp"	"TOOL3.bmp"	500	1	320	"white"
102	"LeftGun"	"WhiteHisp"	3	"HispGun"	"hispFace2.bmp"	"WEAPON2.bmp"	500	0	352	"white"
102	"LeftGun"	"WhiteHisp"	3	"HispGun"	"hispFace3.bmp"	"WEAPON4.bmp"	500	1	329	"white"
102	"LeftGun"	"WhiteHisp"	3	"WhiteTool"	"whiteface3.bmp"	"TOOL4.bmp"	500	1	425	"white"
102	"LeftGun"	"WhiteHisp"	3	"HispTool"	"hispFace4.bmp"	"TOOL2.bmp"	500	1	449	"white"
102	"LeftGun"	"WhiteHisp"	3	"HispTool"	"hispFace1.bmp"	"TOOL4.bmp"	500	0	433	"white"
102	"LeftGun"	"WhiteHisp"	3	"HispTool"	"hispFace2.bmp"	"TOOL3.bmp"	500	1	489	"white"
102	"LeftGun"	"WhiteHisp"	3	"HispTool"	"hispFace3.bmp"	"TOOL1.bmp"	1000	1	553	"white"
102	"LeftGun"	"WhiteHisp"	3	"HispGun"	"hispFace4.bmp"	"WEAPON1.bmp"	500	0	364	"white"
102	"LeftGun"	"WhiteHisp"	3	"HispGun"	"hispFace1.bmp"	"WEAPON2.bmp"	500	0	432	"white"
102	"LeftGun"	"WhiteHisp"	3	"WhiteGun"	"whiteface4.bmp"	"WEAPON4.bmp"	500	0	432	"white"
102	"LeftGun"	"WhiteHisp"	3	"HispTool"	"hispFace2.bmp"	"TOOL2.bmp"	500	1	456	"white"
102	"LeftGun"	"WhiteHisp"	3	"WhiteTool"	"whiteface1.bmp"	"TOOL4.bmp"	500	1	416	"white"
102	"LeftGun"	"WhiteHisp"	3	"WhiteGun"	"whiteface3.bmp"	"WEAPON3.bmp"	500	1	360	"white"
102	"LeftGun"	"WhiteHisp"	3	"HispTool"	"hispFace3.bmp"	"TOOL3.bmp"	500	1	408	"white"
102	"LeftGun"	"WhiteHisp"	3	"HispTool"	"hispFace4.bmp"	"TOOL1.bmp"	500	1	472	"white"
102	"LeftGun"	"WhiteHisp"	3	"WhiteTool"	"whiteface2.bmp"	"TOOL1.bmp"	500	1	424	"white"
102	"LeftGun"	"WhiteHisp"	3	"WhiteTool"	"whiteface4.bmp"	"TOOL3.bmp"	500	1	456	"white"
102	"LeftGun"	"WhiteHisp"	3	"HispTool"	"hispFace1.bmp"	"TOOL2.bmp"	500	1	400	"white"
102	"LeftGun"	"WhiteHisp"	3	"WhiteTool"	"whiteface2.bmp"	"TOOL4.bmp"	500	1	424	"white"
102	"LeftGun"	"WhiteHisp"	3	"HispTool"	"hispFace2.bmp"	"TOOL4.bmp"	500	1	392	"white"
102	"LeftGun"	"WhiteHisp"	3	"HispGun"	"hispFace3.bmp"	"WEAPON1.bmp"	500	1	464	"white"
102	"LeftGun"	"WhiteHisp"	3	"HispGun"	"hispFace4.bmp"	"WEAPON3.bmp"	500	1	456	"white"
102	"LeftGun"	"WhiteHisp"	3	"WhiteTool"	"whiteface3.bmp"	"TOOL3.bmp"	500	1	415	"white"
102	"LeftGun"	"WhiteHisp"	3	"WhiteGun"	"whiteface1.bmp"	"WEAPON2.bmp"	500	0	423	"white"
102	"LeftGun"	"WhiteHisp"	3	"HispTool"	"hispFace1.bmp"	"TOOL2.bmp"	1000	1	536	"white"
102	"LeftGun"	"WhiteHisp"	3	"WhiteTool"	"whiteface2.bmp"	"TOOL1.bmp"	500	0	428	"white"
102	"LeftGun"	"WhiteHisp"	3	"WhiteGun"	"whiteface4.bmp"	"WEAPON4.bmp"	1000	0	0	"white"
102	"LeftGun"	"WhiteHisp"	3	"WhiteTool"	"whiteface1.bmp"	"TOOL1.bmp"	500	0	431	"white"
102	"LeftGun"	"WhiteHisp"	3	"HispTool"	"hispFace2.bmp"	"TOOL4.bmp"	500	1	415	"white"
102	"LeftGun"	"WhiteHisp"	3	"HispTool"	"hispFace3.bmp"	"TOOL2.bmp"	1000	1	519	"white"
102	"LeftGun"	"WhiteHisp"	3	"HispTool"	"hispFace4.bmp"	"TOOL3.bmp"	500	1	451	"white"
102	"LeftGun"	"WhiteHisp"	3	"WhiteGun"	"whiteface3.bmp"	"WEAPON1.bmp"	500	1	395	"white"
102	"LeftGun"	"WhiteHisp"	3	"WhiteGun"	"whiteface4.bmp"	"WEAPON3.bmp"	500	1	315	"white"
102	"LeftGun"	"WhiteHisp"	3	"WhiteGun"	"whiteface3.bmp"	"WEAPON1.bmp"	500	1	371	"white"
102	"LeftGun"	"WhiteHisp"	3	"WhiteGun"	"whiteface1.bmp"	"WEAPON4.bmp"	500	1	499	"white"
102	"LeftGun"	"WhiteHisp"	3	"HispGun"	"hispFace1.bmp"	"WEAPON2.bmp"	500	1	435	"white"
102	"LeftGun"	"WhiteHisp"	3	"HispTool"	"hispFace2.bmp"	"TOOL3.bmp"	500	1	402	"white"
102	"LeftGun"	"WhiteHisp"	3	"WhiteTool"	"whiteface2.bmp"	"TOOL4.bmp"	500	1	402	"white"
102	"LeftGun"	"WhiteHisp"	3	"WhiteTool"	"whiteface4.bmp"	"TOOL1.bmp"	500	0	426	"white"
102	"LeftGun"	"WhiteHisp"	3	"HispGun"	"hispFace3.bmp"	"WEAPON3.bmp"	500	1	298	"white"
102	"LeftGun"	"WhiteHisp"	3	"HispGun"	"hispFace4.bmp"	"WEAPON1.bmp"	1000	0	0	"white"
102	"LeftGun"	"WhiteHisp"	3	"WhiteGun"	"whiteface2.bmp"	"WEAPON2.bmp"	500	0	352	"white"
102	"LeftGun"	"WhiteHisp"	3	"HispGun"	"hispFace1.bmp"	"WEAPON4.bmp"	500	1	360	"white"
102	"LeftGun"	"WhiteHisp"	3	"WhiteGun"	"whiteface3.bmp"	"WEAPON2.bmp"	500	1	360	"white"
102	"LeftGun"	"WhiteHisp"	3	"HispGun"	"hispFace2.bmp"	"WEAPON4.bmp"	500	1	344	"white"
102	"LeftGun"	"WhiteHisp"	3	"HispGun"	"hispFace3.bmp"	"WEAPON3.bmp"	500	1	304	"white"
102	"LeftGun"	"WhiteHisp"	3	"WhiteTool"	"whiteface1.bmp"	"TOOL2.bmp"	500	0	312	"white"
102	"LeftGun"	"WhiteHisp"	3	"HispTool"	"hispFace4.bmp"	"TOOL4.bmp"	500	0	384	"white"
102	"LeftGun"	"WhiteHisp"	3	"HispGun"	"hispFace1.bmp"	"WEAPON1.bmp"	500	1	344	"white"
102	"LeftGun"	"WhiteHisp"	3	"WhiteGun"	"whiteface1.bmp"	"WEAPON4.bmp"	500	1	391	"white"
102	"LeftGun"	"WhiteHisp"	3	"WhiteTool"	"whiteface4.bmp"	"TOOL3.bmp"	500	0	311	"white"
102	"LeftGun"	"WhiteHisp"	3	"HispTool"	"hispFace2.bmp"	"TOOL2.bmp"	500	1	360	"white"
102	"LeftGun"	"WhiteHisp"	3	"WhiteTool"	"whiteface2.bmp"	"TOOL1.bmp"	500	0	312	"white"
102	"LeftGun"	"WhiteHisp"	3	"HispTool"	"hispFace3.bmp"	"TOOL2.bmp"	1000	1	560	"white"
102	"LeftGun"	"WhiteHisp"	3	"HispGun"	"hispFace4.bmp"	"WEAPON2.bmp"	1000	0	507	"white"
102	"LeftGun"	"WhiteHisp"	3	"WhiteGun"	"whiteface3.bmp"	"WEAPON3.bmp"	1000	0	543	"white"
102	"LeftGun"	"WhiteHisp"	3	"WhiteGun"	"whiteface3.bmp"	"WEAPON1.bmp"	500	1	379	"white"
102	"LeftGun"	"WhiteHisp"	3	"HispTool"	"hispFace1.bmp"	"TOOL4.bmp"	500	1	443	"white"
102	"LeftGun"	"WhiteHisp"	3	"HispTool"	"hispFace2.bmp"	"TOOL3.bmp"	500	1	475	"white"
102	"LeftGun"	"WhiteHisp"	3	"WhiteTool"	"whiteface4.bmp"	"TOOL1.bmp"	500	0	475	"white"
102	"LeftGun"	"WhiteHisp"	3	"WhiteTool"	"whiteface2.bmp"	"TOOL2.bmp"	500	1	267	"white"
102	"LeftGun"	"WhiteHisp"	3	"WhiteGun"	"whiteface1.bmp"	"WEAPON2.bmp"	500	0	419	"white"
102	"LeftGun"	"WhiteHisp"	3	"WhiteTool"	"whiteface3.bmp"	"TOOL1.bmp"	500	0	427	"white"
102	"LeftGun"	"WhiteHisp"	3	"WhiteGun"	"whiteface4.bmp"	"WEAPON4.bmp"	500	0	227	"white"
102	"LeftGun"	"WhiteHisp"	3	"WhiteTool"	"whiteface1.bmp"	"TOOL3.bmp"	500	0	34	"white"
102	"LeftGun"	"WhiteHisp"	3	"HispGun"	"hispFace3.bmp"	"WEAPON3.bmp"	500	0	74	"white"
102	"LeftGun"	"WhiteHisp"	3	"HispTool"	"hispFace4.bmp"	"TOOL4.bmp"	500	0	314	"white"
102	"LeftGun"	"WhiteHisp"	3	"HispGun"	"hispFace1.bmp"	"WEAPON1.bmp"	500	1	330	"white"
102	"LeftGun"	"WhiteHisp"	3	"WhiteGun"	"whiteface2.bmp"	"WEAPON4.bmp"	500	0	290	"white"
102	"LeftGun"	"WhiteHisp"	3	"HispGun"	"hispFace2.bmp"	"WEAPON1.bmp"	500	1	290	"white"
102	"LeftGun"	"WhiteHisp"	3	"HispGun"	"hispFace3.bmp"	"WEAPON3.bmp"	1000	1	595	"white"
102	"LeftGun"	"WhiteHisp"	3	"HispGun"	"hispFace4.bmp"	"WEAPON2.bmp"	500	1	327	"white"
102	"LeftGun"	"WhiteHisp"	4	"WhiteTool"	"whiteface2.bmp"	"TOOL4.bmp"	500	0	424	"white"
102	"LeftGun"	"WhiteHisp"	4	"WhiteTool"	"whiteface4.bmp"	"TOOL2.bmp"	500	1	384	"white"
102	"LeftGun"	"WhiteHisp"	4	"HispTool"	"hispFace1.bmp"	"TOOL1.bmp"	500	1	336	"white"
102	"LeftGun"	"WhiteHisp"	4	"HispTool"	"hispFace2.bmp"	"TOOL3.bmp"	500	1	328	"white"
102	"LeftGun"	"WhiteHisp"	4	"WhiteGun"	"whiteface1.bmp"	"WEAPON3.bmp"	500	0	367	"white"
102	"LeftGun"	"WhiteHisp"	4	"WhiteGun"	"whiteface3.bmp"	"WEAPON2.bmp"	500	1	431	"white"
102	"LeftGun"	"WhiteHisp"	4	"HispGun"	"hispFace3.bmp"	"WEAPON4.bmp"	500	0	423	"white"
102	"LeftGun"	"WhiteHisp"	4	"WhiteGun"	"whiteface1.bmp"	"WEAPON1.bmp"	1000	1	583	"white"
102	"LeftGun"	"WhiteHisp"	4	"HispTool"	"hispFace4.bmp"	"TOOL3.bmp"	500	0	346	"white"
102	"LeftGun"	"WhiteHisp"	4	"HispTool"	"hispFace1.bmp"	"TOOL2.bmp"	500	1	274	"white"
102	"LeftGun"	"WhiteHisp"	4	"HispTool"	"hispFace2.bmp"	"TOOL4.bmp"	500	1	435	"white"
102	"LeftGun"	"WhiteHisp"	4	"HispTool"	"hispFace3.bmp"	"TOOL1.bmp"	500	0	467	"white"
102	"LeftGun"	"WhiteHisp"	4	"WhiteGun"	"whiteface4.bmp"	"WEAPON3.bmp"	500	0	379	"white"
102	"LeftGun"	"WhiteHisp"	4	"WhiteTool"	"whiteface2.bmp"	"TOOL2.bmp"	500	0	299	"white"
102	"LeftGun"	"WhiteHisp"	4	"WhiteGun"	"whiteface3.bmp"	"WEAPON4.bmp"	500	1	427	"white"
102	"LeftGun"	"WhiteHisp"	4	"WhiteGun"	"whiteface2.bmp"	"WEAPON1.bmp"	1000	1	507	"white"
102	"LeftGun"	"WhiteHisp"	4	"WhiteTool"	"whiteface4.bmp"	"TOOL4.bmp"	500	1	398	"white"
102	"LeftGun"	"WhiteHisp"	4	"HispGun"	"hispFace4.bmp"	"WEAPON2.bmp"	500	1	494	"white"
102	"LeftGun"	"WhiteHisp"	4	"WhiteGun"	"whiteface3.bmp"	"WEAPON4.bmp"	1000	1	501	"white"
102	"LeftGun"	"WhiteHisp"	4	"HispGun"	"hispFace1.bmp"	"WEAPON1.bmp"	1000	1	609	"white"
102	"LeftGun"	"WhiteHisp"	4	"HispGun"	"hispFace2.bmp"	"WEAPON2.bmp"	500	1	364	"white"
102	"LeftGun"	"WhiteHisp"	4	"HispTool"	"hispFace3.bmp"	"TOOL3.bmp"	500	1	428	"white"
102	"LeftGun"	"WhiteHisp"	4	"HispTool"	"hispFace4.bmp"	"TOOL1.bmp"	500	0	444	"white"
102	"LeftGun"	"WhiteHisp"	4	"WhiteTool"	"whiteface1.bmp"	"TOOL1.bmp"	1000	1	588	"white"
102	"LeftGun"	"WhiteHisp"	4	"HispTool"	"hispFace1.bmp"	"TOOL4.bmp"	500	0	287	"white"
102	"LeftGun"	"WhiteHisp"	4	"WhiteGun"	"whiteface3.bmp"	"WEAPON3.bmp"	500	1	359	"white"
102	"LeftGun"	"WhiteHisp"	4	"HispGun"	"hispFace2.bmp"	"WEAPON3.bmp"	500	1	431	"white"
102	"LeftGun"	"WhiteHisp"	4	"HispTool"	"hispFace3.bmp"	"TOOL2.bmp"	500	0	407	"white"
102	"LeftGun"	"WhiteHisp"	4	"HispGun"	"hispFace4.bmp"	"WEAPON2.bmp"	500	1	423	"white"
102	"LeftGun"	"WhiteHisp"	4	"WhiteGun"	"whiteface2.bmp"	"WEAPON4.bmp"	500	0	368	"white"
102	"LeftGun"	"WhiteHisp"	4	"HispTool"	"hispFace1.bmp"	"TOOL3.bmp"	500	0	376	"white"
102	"LeftGun"	"WhiteHisp"	4	"WhiteTool"	"whiteface1.bmp"	"TOOL2.bmp"	500	1	376	"white"
102	"LeftGun"	"WhiteHisp"	4	"WhiteTool"	"whiteface4.bmp"	"TOOL4.bmp"	500	0	432	"white"
102	"LeftGun"	"WhiteHisp"	4	"WhiteTool"	"whiteface3.bmp"	"TOOL3.bmp"	500	1	448	"white"
102	"LeftGun"	"WhiteHisp"	4	"HispTool"	"hispFace2.bmp"	"TOOL1.bmp"	500	0	376	"white"
102	"LeftGun"	"WhiteHisp"	4	"WhiteGun"	"whiteface1.bmp"	"WEAPON1.bmp"	500	1	352	"white"
102	"LeftGun"	"WhiteHisp"	4	"HispGun"	"hispFace3.bmp"	"WEAPON2.bmp"	500	1	448	"white"
102	"LeftGun"	"WhiteHisp"	4	"HispTool"	"hispFace4.bmp"	"TOOL4.bmp"	500	0	352	"white"
102	"LeftGun"	"WhiteHisp"	4	"HispGun"	"hispFace1.bmp"	"WEAPON3.bmp"	500	1	361	"white"
102	"LeftGun"	"WhiteHisp"	4	"WhiteGun"	"whiteface4.bmp"	"WEAPON1.bmp"	1000	1	609	"white"
102	"LeftGun"	"WhiteHisp"	4	"HispTool"	"hispFace2.bmp"	"TOOL3.bmp"	500	1	421	"white"
102	"LeftGun"	"WhiteHisp"	4	"WhiteTool"	"whiteface2.bmp"	"TOOL2.bmp"	500	1	469	"white"
102	"LeftGun"	"WhiteHisp"	4	"WhiteGun"	"whiteface1.bmp"	"WEAPON4.bmp"	500	1	413	"white"
102	"LeftGun"	"WhiteHisp"	4	"WhiteTool"	"whiteface3.bmp"	"TOOL1.bmp"	1000	1	565	"white"
102	"LeftGun"	"WhiteHisp"	4	"WhiteTool"	"whiteface2.bmp"	"TOOL2.bmp"	1000	1	544	"white"
102	"LeftGun"	"WhiteHisp"	4	"WhiteTool"	"whiteface4.bmp"	"TOOL1.bmp"	500	1	379	"white"
102	"LeftGun"	"WhiteHisp"	4	"WhiteTool"	"whiteface1.bmp"	"TOOL3.bmp"	500	1	443	"white"
102	"LeftGun"	"WhiteHisp"	4	"HispTool"	"hispFace3.bmp"	"TOOL4.bmp"	500	0	419	"white"
102	"LeftGun"	"WhiteHisp"	4	"HispGun"	"hispFace4.bmp"	"WEAPON3.bmp"	500	1	331	"white"
102	"LeftGun"	"WhiteHisp"	4	"WhiteTool"	"whiteface2.bmp"	"TOOL1.bmp"	1000	1	555	"white"
102	"LeftGun"	"WhiteHisp"	4	"HispGun"	"hispFace1.bmp"	"WEAPON2.bmp"	500	0	318	"white"
102	"LeftGun"	"WhiteHisp"	4	"HispGun"	"hispFace2.bmp"	"WEAPON1.bmp"	500	1	431	"white"
102	"LeftGun"	"WhiteHisp"	4	"WhiteGun"	"whiteface4.bmp"	"WEAPON4.bmp"	500	1	447	"white"
102	"LeftGun"	"WhiteHisp"	4	"HispGun"	"hispFace3.bmp"	"WEAPON4.bmp"	500	1	383	"white"
102	"LeftGun"	"WhiteHisp"	4	"WhiteTool"	"whiteface3.bmp"	"TOOL2.bmp"	500	0	287	"white"
102	"LeftGun"	"WhiteHisp"	4	"WhiteGun"	"whiteface4.bmp"	"WEAPON2.bmp"	500	0	407	"white"
102	"LeftGun"	"WhiteHisp"	4	"HispTool"	"hispFace4.bmp"	"TOOL3.bmp"	500	0	271	"white"
102	"LeftGun"	"WhiteHisp"	4	"HispGun"	"hispFace1.bmp"	"WEAPON1.bmp"	500	0	311	"white"
102	"LeftGun"	"WhiteHisp"	4	"HispGun"	"hispFace2.bmp"	"WEAPON3.bmp"	500	1	383	"white"
102	"LeftGun"	"WhiteHisp"	4	"WhiteGun"	"whiteface3.bmp"	"WEAPON2.bmp"	500	1	310	"white"
102	"LeftGun"	"WhiteHisp"	4	"WhiteGun"	"whiteface1.bmp"	"WEAPON4.bmp"	500	1	366	"white"
102	"LeftGun"	"WhiteHisp"	4	"HispGun"	"hispFace3.bmp"	"WEAPON1.bmp"	500	1	414	"white"
102	"LeftGun"	"WhiteHisp"	4	"WhiteTool"	"whiteface2.bmp"	"TOOL4.bmp"	500	1	470	"white"
102	"LeftGun"	"WhiteHisp"	4	"HispGun"	"hispFace4.bmp"	"WEAPON3.bmp"	500	1	398	"white"
102	"LeftGun"	"WhiteHisp"	4	"WhiteGun"	"whiteface3.bmp"	"WEAPON3.bmp"	1000	1	503	"white"
102	"LeftGun"	"WhiteHisp"	4	"HispTool"	"hispFace1.bmp"	"TOOL2.bmp"	500	0	427	"white"
102	"LeftGun"	"WhiteHisp"	4	"HispGun"	"hispFace2.bmp"	"WEAPON4.bmp"	500	0	339	"white"
102	"LeftGun"	"WhiteHisp"	4	"WhiteGun"	"whiteface4.bmp"	"WEAPON2.bmp"	500	1	467	"white"
102	"LeftGun"	"WhiteHisp"	4	"WhiteGun"	"whiteface1.bmp"	"WEAPON1.bmp"	500	0	371	"white"
102	"LeftGun"	"WhiteHisp"	4	"WhiteGun"	"whiteface2.bmp"	"WEAPON2.bmp"	500	1	243	"white"
102	"LeftGun"	"WhiteHisp"	4	"HispTool"	"hispFace3.bmp"	"TOOL4.bmp"	500	0	267	"white"
102	"LeftGun"	"WhiteHisp"	4	"WhiteTool"	"whiteface3.bmp"	"TOOL3.bmp"	500	1	355	"white"
102	"LeftGun"	"WhiteHisp"	4	"WhiteTool"	"whiteface4.bmp"	"TOOL1.bmp"	500	0	443	"white"
102	"LeftGun"	"WhiteHisp"	4	"WhiteGun"	"whiteface1.bmp"	"WEAPON1.bmp"	500	0	370	"white"
102	"LeftGun"	"WhiteHisp"	4	"HispGun"	"hispFace4.bmp"	"WEAPON4.bmp"	500	0	346	"white"
102	"LeftGun"	"WhiteHisp"	4	"HispGun"	"hispFace1.bmp"	"WEAPON3.bmp"	500	1	402	"white"
102	"LeftGun"	"WhiteHisp"	4	"WhiteTool"	"whiteface2.bmp"	"TOOL1.bmp"	1000	1	506	"white"
102	"LeftGun"	"WhiteHisp"	4	"WhiteGun"	"whiteface2.bmp"	"WEAPON2.bmp"	500	1	446	"white"
102	"LeftGun"	"WhiteHisp"	4	"HispTool"	"hispFace2.bmp"	"TOOL2.bmp"	500	1	406	"white"
102	"LeftGun"	"WhiteHisp"	4	"WhiteGun"	"whiteface4.bmp"	"WEAPON4.bmp"	500	1	286	"white"
102	"LeftGun"	"WhiteHisp"	4	"WhiteTool"	"whiteface1.bmp"	"TOOL4.bmp"	500	1	302	"white"
102	"LeftGun"	"WhiteHisp"	4	"WhiteGun"	"whiteface3.bmp"	"WEAPON3.bmp"	500	1	286	"white"
102	"LeftGun"	"WhiteHisp"	4	"HispGun"	"hispFace3.bmp"	"WEAPON1.bmp"	500	1	454	"white"
102	"LeftGun"	"WhiteHisp"	4	"HispTool"	"hispFace4.bmp"	"TOOL3.bmp"	500	1	430	"white"
102	"LeftGun"	"WhiteHisp"	4	"HispTool"	"hispFace1.bmp"	"TOOL4.bmp"	500	1	486	"white"
102	"LeftGun"	"WhiteHisp"	4	"WhiteTool"	"whiteface4.bmp"	"TOOL3.bmp"	500	1	422	"white"
102	"LeftGun"	"WhiteHisp"	4	"HispGun"	"hispFace2.bmp"	"WEAPON1.bmp"	1000	0	502	"white"
102	"LeftGun"	"WhiteHisp"	4	"HispTool"	"hispFace3.bmp"	"TOOL2.bmp"	500	0	441	"white"
102	"LeftGun"	"WhiteHisp"	4	"HispGun"	"hispFace4.bmp"	"WEAPON3.bmp"	500	0	377	"white"
102	"LeftGun"	"WhiteHisp"	4	"HispTool"	"hispFace1.bmp"	"TOOL1.bmp"	1000	1	553	"white"
102	"LeftGun"	"WhiteHisp"	4	"WhiteGun"	"whiteface1.bmp"	"WEAPON4.bmp"	500	1	404	"white"
102	"LeftGun"	"WhiteHisp"	4	"WhiteGun"	"whiteface3.bmp"	"WEAPON2.bmp"	500	0	348	"white"
102	"LeftGun"	"WhiteHisp"	4	"HispTool"	"hispFace2.bmp"	"TOOL4.bmp"	1000	1	524	"white"
102	"LeftGun"	"WhiteHisp"	4	"WhiteTool"	"whiteface2.bmp"	"TOOL3.bmp"	500	1	472	"white"
102	"LeftGun"	"WhiteHisp"	4	"WhiteTool"	"whiteface3.bmp"	"TOOL2.bmp"	1000	1	512	"white"
102	"LeftGun"	"WhiteHisp"	4	"HispGun"	"hispFace3.bmp"	"WEAPON1.bmp"	500	0	331	"white"
105	"RightGun"	"BlackHisp"	2	"HispTool"	"hispFace1.bmp"	"TOOL4.bmp"	500	1	402	"white"
