"Subject"	"Script"	"Condition"	"Gender"	"Sex"	"Race"	"Subset"	"mapping"	"laptop"	"Date"	"Time"	"Block"	"Trial"	"TrialType"	"CueType"	"ProbeType"	"BlackPrime"	"BlackTarget"	"GunTarget"	"WhitePrime"	"ToolTarget"	"Probe.ACC"	"Probe.RT"	"feedbackmask"	"Note"	"CueClass"	"ProbeClass"	"Probe"
"1"	"Scherer_2015_BG"	"BlackGun"	"2"	"F"	"1"	"Inconvenience"	"LeftGun"	"heavy"	"5/8/2015"	"8:10:20"	"RunProc"	"1"	"WhiteBlack"	"whiteface1.bmp"	"BlackFace1.bmp"	"BlackFace4.bmp"	"BlackFace1.bmp"	"NULL"	"whiteface1.bmp"	"NULL"	1	350	"fast"	NA	"white"	"Blac"	"Other"
"1"	"Scherer_2015_BG"	"BlackGun"	"2"	"F"	"1"	"Inconvenience"	"LeftGun"	"heavy"	"5/8/2015"	"8:10:20"	"RunProc"	"2"	"WhiteGun"	"whiteface2.bmp"	"WEAPON1dk.bmp"	"NULL"	"NULL"	"WEAPON1dk.bmp"	"whiteface2.bmp"	"NULL"	1	403	"fast"	NA	"white"	"WEAP"	"Gun"
"1"	"Scherer_2015_BG"	"BlackGun"	"2"	"F"	"1"	"Inconvenience"	"LeftGun"	"heavy"	"5/8/2015"	"8:10:20"	"RunProc"	"3"	"BlackGun"	"BlackFace4.bmp"	"WEAPON4dk.bmp"	"BlackFace4.bmp"	"BlackFace2.bmp"	"WEAPON4dk.bmp"	"NULL"	"NULL"	0	238	"fast"	NA	"Black"	"WEAP"	"Gun"
"1"	"Scherer_2015_BG"	"BlackGun"	"2"	"F"	"1"	"Inconvenience"	"LeftGun"	"heavy"	"5/8/2015"	"8:10:20"	"RunProc"	"4"	"WhiteGun"	"whiteface3.bmp"	"WEAPON3dk.bmp"	"NULL"	"NULL"	"WEAPON3dk.bmp"	"whiteface3.bmp"	"NULL"	1	467	"fast"	NA	"white"	"WEAP"	"Gun"
"1"	"Scherer_2015_BG"	"BlackGun"	"2"	"F"	"1"	"Inconvenience"	"LeftGun"	"heavy"	"5/8/2015"	"8:10:20"	"RunProc"	"5"	"WhiteGun"	"whiteface4.bmp"	"WEAPON2dk.bmp"	"NULL"	"NULL"	"WEAPON2dk.bmp"	"whiteface4.bmp"	"NULL"	1	486	"fast"	NA	"white"	"WEAP"	"Gun"
"1"	"Scherer_2015_BG"	"BlackGun"	"2"	"F"	"1"	"Inconvenience"	"LeftGun"	"heavy"	"5/8/2015"	"8:10:20"	"RunProc"	"6"	"WhiteBlack"	"whiteface2.bmp"	"BlackFace4.bmp"	"BlackFace1.bmp"	"BlackFace4.bmp"	"NULL"	"whiteface2.bmp"	"NULL"	1	469	"fast"	NA	"white"	"Blac"	"Other"
"1"	"Scherer_2015_BG"	"BlackGun"	"2"	"F"	"1"	"Inconvenience"	"LeftGun"	"heavy"	"5/8/2015"	"8:10:20"	"RunProc"	"7"	"BlackGun"	"BlackFace2.bmp"	"WEAPON3dk.bmp"	"BlackFace2.bmp"	"BlackFace3.bmp"	"WEAPON3dk.bmp"	"NULL"	"NULL"	1	489	"fast"	NA	"Black"	"WEAP"	"Gun"
"1"	"Scherer_2015_BG"	"BlackGun"	"2"	"F"	"1"	"Inconvenience"	"LeftGun"	"heavy"	"5/8/2015"	"8:10:20"	"RunProc"	"8"	"WhiteGun"	"whiteface4.bmp"	"WEAPON1dk.bmp"	"NULL"	"NULL"	"WEAPON1dk.bmp"	"whiteface4.bmp"	"NULL"	1	444	"fast"	NA	"white"	"WEAP"	"Gun"
"1"	"Scherer_2015_BG"	"BlackGun"	"2"	"F"	"1"	"Inconvenience"	"LeftGun"	"heavy"	"5/8/2015"	"8:10:20"	"RunProc"	"9"	"BlackGun"	"BlackFace1.bmp"	"WEAPON4dk.bmp"	"BlackFace1.bmp"	"BlackFace2.bmp"	"WEAPON4dk.bmp"	"NULL"	"NULL"	1	476	"fast"	NA	"Black"	"WEAP"	"Gun"
"1"	"Scherer_2015_BG"	"BlackGun"	"2"	"F"	"1"	"Inconvenience"	"LeftGun"	"heavy"	"5/8/2015"	"8:10:20"	"RunProc"	"10"	"BlackGun"	"BlackFace2.bmp"	"WEAPON2dk.bmp"	"BlackFace2.bmp"	"BlackFace4.bmp"	"WEAPON2dk.bmp"	"NULL"	"NULL"	1	430	"fast"	NA	"Black"	"WEAP"	"Gun"
"1"	"Scherer_2015_BG"	"BlackGun"	"2"	"F"	"1"	"Inconvenience"	"LeftGun"	"heavy"	"5/8/2015"	"8:10:20"	"RunProc"	"11"	"WhiteBlack"	"whiteface1.bmp"	"BlackFace3.bmp"	"BlackFace1.bmp"	"BlackFace3.bmp"	"NULL"	"whiteface1.bmp"	"NULL"	1	558	"slow"	NA	"white"	"Blac"	"Other"
"1"	"Scherer_2015_BG"	"BlackGun"	"2"	"F"	"1"	"Inconvenience"	"LeftGun"	"heavy"	"5/8/2015"	"8:10:20"	"RunProc"	"12"	"BlackBlack"	"BlackFace3.bmp"	"BlackFace1.bmp"	"BlackFace3.bmp"	"BlackFace1.bmp"	"NULL"	"NULL"	"NULL"	0	433	"fast"	NA	"Black"	"Blac"	"Other"
"1"	"Scherer_2015_BG"	"BlackGun"	"2"	"F"	"1"	"Inconvenience"	"LeftGun"	"heavy"	"5/8/2015"	"8:10:20"	"RunProc"	"13"	"WhiteBlack"	"whiteface3.bmp"	"BlackFace3.bmp"	"BlackFace4.bmp"	"BlackFace3.bmp"	"NULL"	"whiteface3.bmp"	"NULL"	0	581	"slow"	NA	"white"	"Blac"	"Other"
"1"	"Scherer_2015_BG"	"BlackGun"	"2"	"F"	"1"	"Inconvenience"	"LeftGun"	"heavy"	"5/8/2015"	"8:10:20"	"RunProc"	"14"	"WhiteGun"	"whiteface2.bmp"	"WEAPON3dk.bmp"	"NULL"	"NULL"	"WEAPON3dk.bmp"	"whiteface2.bmp"	"NULL"	1	436	"fast"	NA	"white"	"WEAP"	"Gun"
"1"	"Scherer_2015_BG"	"BlackGun"	"2"	"F"	"1"	"Inconvenience"	"LeftGun"	"heavy"	"5/8/2015"	"8:10:20"	"RunProc"	"15"	"WhiteBlack"	"whiteface1.bmp"	"BlackFace4.bmp"	"BlackFace3.bmp"	"BlackFace4.bmp"	"NULL"	"whiteface1.bmp"	"NULL"	1	513	"slow"	NA	"white"	"Blac"	"Other"
"1"	"Scherer_2015_BG"	"BlackGun"	"2"	"F"	"1"	"Inconvenience"	"LeftGun"	"heavy"	"5/8/2015"	"8:10:20"	"RunProc"	"16"	"WhiteBlack"	"whiteface3.bmp"	"BlackFace1.bmp"	"BlackFace2.bmp"	"BlackFace1.bmp"	"NULL"	"whiteface3.bmp"	"NULL"	0	217	"fast"	NA	"white"	"Blac"	"Other"
"1"	"Scherer_2015_BG"	"BlackGun"	"2"	"F"	"1"	"Inconvenience"	"LeftGun"	"heavy"	"5/8/2015"	"8:10:20"	"RunProc"	"17"	"BlackGun"	"BlackFace3.bmp"	"WEAPON2dk.bmp"	"BlackFace3.bmp"	"BlackFace2.bmp"	"WEAPON2dk.bmp"	"NULL"	"NULL"	0	207	"fast"	NA	"Black"	"WEAP"	"Gun"
"1"	"Scherer_2015_BG"	"BlackGun"	"2"	"F"	"1"	"Inconvenience"	"LeftGun"	"heavy"	"5/8/2015"	"8:10:20"	"RunProc"	"18"	"BlackBlack"	"BlackFace2.bmp"	"BlackFace3.bmp"	"BlackFace2.bmp"	"BlackFace3.bmp"	"NULL"	"NULL"	"NULL"	0	0	"slow"	NA	"Black"	"Blac"	"Other"
"1"	"Scherer_2015_BG"	"BlackGun"	"2"	"F"	"1"	"Inconvenience"	"LeftGun"	"heavy"	"5/8/2015"	"8:10:20"	"RunProc"	"19"	"BlackBlack"	"BlackFace2.bmp"	"BlackFace1.bmp"	"BlackFace2.bmp"	"BlackFace1.bmp"	"NULL"	"NULL"	"NULL"	1	317	"fast"	NA	"Black"	"Blac"	"Other"
"1"	"Scherer_2015_BG"	"BlackGun"	"2"	"F"	"1"	"Inconvenience"	"LeftGun"	"heavy"	"5/8/2015"	"8:10:20"	"RunProc"	"20"	"WhiteBlack"	"whiteface4.bmp"	"BlackFace2.bmp"	"BlackFace4.bmp"	"BlackFace2.bmp"	"NULL"	"whiteface4.bmp"	"NULL"	1	289	"fast"	NA	"white"	"Blac"	"Other"
"1"	"Scherer_2015_BG"	"BlackGun"	"2"	"F"	"1"	"Inconvenience"	"LeftGun"	"heavy"	"5/8/2015"	"8:10:20"	"RunProc"	"21"	"BlackBlack"	"BlackFace1.bmp"	"BlackFace3.bmp"	"BlackFace1.bmp"	"BlackFace3.bmp"	"NULL"	"NULL"	"NULL"	1	255	"fast"	NA	"Black"	"Blac"	"Other"
"1"	"Scherer_2015_BG"	"BlackGun"	"2"	"F"	"1"	"Inconvenience"	"LeftGun"	"heavy"	"5/8/2015"	"8:10:20"	"RunProc"	"22"	"WhiteGun"	"whiteface2.bmp"	"WEAPON1dk.bmp"	"NULL"	"NULL"	"WEAPON1dk.bmp"	"whiteface2.bmp"	"NULL"	0	301	"fast"	NA	"white"	"WEAP"	"Gun"
"1"	"Scherer_2015_BG"	"BlackGun"	"2"	"F"	"1"	"Inconvenience"	"LeftGun"	"heavy"	"5/8/2015"	"8:10:20"	"RunProc"	"23"	"WhiteGun"	"whiteface3.bmp"	"WEAPON4dk.bmp"	"NULL"	"NULL"	"WEAPON4dk.bmp"	"whiteface3.bmp"	"NULL"	0	367	"fast"	NA	"white"	"WEAP"	"Gun"
"1"	"Scherer_2015_BG"	"BlackGun"	"2"	"F"	"1"	"Inconvenience"	"LeftGun"	"heavy"	"5/8/2015"	"8:10:20"	"RunProc"	"24"	"WhiteBlack"	"whiteface4.bmp"	"BlackFace2.bmp"	"BlackFace1.bmp"	"BlackFace2.bmp"	"NULL"	"whiteface4.bmp"	"NULL"	0	443	"fast"	NA	"white"	"Blac"	"Other"
"1"	"Scherer_2015_BG"	"BlackGun"	"2"	"F"	"1"	"Inconvenience"	"LeftGun"	"heavy"	"5/8/2015"	"8:10:20"	"RunProc"	"25"	"WhiteBlack"	"whiteface1.bmp"	"BlackFace1.bmp"	"BlackFace3.bmp"	"BlackFace1.bmp"	"NULL"	"whiteface1.bmp"	"NULL"	0	516	"slow"	NA	"white"	"Blac"	"Other"
"1"	"Scherer_2015_BG"	"BlackGun"	"2"	"F"	"1"	"Inconvenience"	"LeftGun"	"heavy"	"5/8/2015"	"8:10:20"	"RunProc"	"26"	"WhiteBlack"	"whiteface3.bmp"	"BlackFace4.bmp"	"BlackFace3.bmp"	"BlackFace4.bmp"	"NULL"	"whiteface3.bmp"	"NULL"	1	367	"fast"	NA	"white"	"Blac"	"Other"
"1"	"Scherer_2015_BG"	"BlackGun"	"2"	"F"	"1"	"Inconvenience"	"LeftGun"	"heavy"	"5/8/2015"	"8:10:20"	"RunProc"	"27"	"BlackBlack"	"BlackFace1.bmp"	"BlackFace4.bmp"	"BlackFace1.bmp"	"BlackFace4.bmp"	"NULL"	"NULL"	"NULL"	1	324	"fast"	NA	"Black"	"Blac"	"Other"
"1"	"Scherer_2015_BG"	"BlackGun"	"2"	"F"	"1"	"Inconvenience"	"LeftGun"	"heavy"	"5/8/2015"	"8:10:20"	"RunProc"	"28"	"WhiteGun"	"whiteface2.bmp"	"WEAPON4dk.bmp"	"NULL"	"NULL"	"WEAPON4dk.bmp"	"whiteface2.bmp"	"NULL"	1	264	"fast"	NA	"white"	"WEAP"	"Gun"
"1"	"Scherer_2015_BG"	"BlackGun"	"2"	"F"	"1"	"Inconvenience"	"LeftGun"	"heavy"	"5/8/2015"	"8:10:20"	"RunProc"	"29"	"WhiteGun"	"whiteface4.bmp"	"WEAPON2dk.bmp"	"NULL"	"NULL"	"WEAPON2dk.bmp"	"whiteface4.bmp"	"NULL"	1	334	"fast"	NA	"white"	"WEAP"	"Gun"
"1"	"Scherer_2015_BG"	"BlackGun"	"2"	"F"	"1"	"Inconvenience"	"LeftGun"	"heavy"	"5/8/2015"	"8:10:20"	"RunProc"	"30"	"WhiteGun"	"whiteface1.bmp"	"WEAPON3dk.bmp"	"NULL"	"NULL"	"WEAPON3dk.bmp"	"whiteface1.bmp"	"NULL"	0	349	"fast"	NA	"white"	"WEAP"	"Gun"
"1"	"Scherer_2015_BG"	"BlackGun"	"2"	"F"	"1"	"Inconvenience"	"LeftGun"	"heavy"	"5/8/2015"	"8:10:20"	"RunProc"	"31"	"BlackGun"	"BlackFace4.bmp"	"WEAPON1dk.bmp"	"BlackFace4.bmp"	"BlackFace3.bmp"	"WEAPON1dk.bmp"	"NULL"	"NULL"	0	335	"fast"	NA	"Black"	"WEAP"	"Gun"
"1"	"Scherer_2015_BG"	"BlackGun"	"2"	"F"	"1"	"Inconvenience"	"LeftGun"	"heavy"	"5/8/2015"	"8:10:20"	"RunProc"	"32"	"BlackBlack"	"BlackFace3.bmp"	"BlackFace2.bmp"	"BlackFace3.bmp"	"BlackFace2.bmp"	"NULL"	"NULL"	"NULL"	1	415	"fast"	NA	"Black"	"Blac"	"Other"
"1"	"Scherer_2015_BG"	"BlackGun"	"2"	"F"	"1"	"Inconvenience"	"LeftGun"	"heavy"	"5/8/2015"	"8:10:20"	"RunProc"	"33"	"BlackGun"	"BlackFace2.bmp"	"WEAPON2dk.bmp"	"BlackFace2.bmp"	"BlackFace4.bmp"	"WEAPON2dk.bmp"	"NULL"	"NULL"	1	516	"slow"	NA	"Black"	"WEAP"	"Gun"
"1"	"Scherer_2015_BG"	"BlackGun"	"2"	"F"	"1"	"Inconvenience"	"LeftGun"	"heavy"	"5/8/2015"	"8:10:20"	"RunProc"	"34"	"BlackBlack"	"BlackFace4.bmp"	"BlackFace1.bmp"	"BlackFace4.bmp"	"BlackFace1.bmp"	"NULL"	"NULL"	"NULL"	1	342	"fast"	NA	"Black"	"Blac"	"Other"
"1"	"Scherer_2015_BG"	"BlackGun"	"2"	"F"	"1"	"Inconvenience"	"LeftGun"	"heavy"	"5/8/2015"	"8:10:20"	"RunProc"	"35"	"WhiteGun"	"whiteface4.bmp"	"WEAPON1dk.bmp"	"NULL"	"NULL"	"WEAPON1dk.bmp"	"whiteface4.bmp"	"NULL"	1	301	"fast"	NA	"white"	"WEAP"	"Gun"
"1"	"Scherer_2015_BG"	"BlackGun"	"2"	"F"	"1"	"Inconvenience"	"LeftGun"	"heavy"	"5/8/2015"	"8:10:20"	"RunProc"	"36"	"BlackGun"	"BlackFace4.bmp"	"WEAPON4dk.bmp"	"BlackFace4.bmp"	"BlackFace2.bmp"	"WEAPON4dk.bmp"	"NULL"	"NULL"	1	431	"fast"	NA	"Black"	"WEAP"	"Gun"
"1"	"Scherer_2015_BG"	"BlackGun"	"2"	"F"	"1"	"Inconvenience"	"LeftGun"	"heavy"	"5/8/2015"	"8:10:20"	"RunProc"	"37"	"WhiteBlack"	"whiteface1.bmp"	"BlackFace3.bmp"	"BlackFace4.bmp"	"BlackFace3.bmp"	"NULL"	"whiteface1.bmp"	"NULL"	1	318	"fast"	NA	"white"	"Blac"	"Other"
"1"	"Scherer_2015_BG"	"BlackGun"	"2"	"F"	"1"	"Inconvenience"	"LeftGun"	"heavy"	"5/8/2015"	"8:10:20"	"RunProc"	"38"	"BlackGun"	"BlackFace1.bmp"	"WEAPON3dk.bmp"	"BlackFace1.bmp"	"BlackFace3.bmp"	"WEAPON3dk.bmp"	"NULL"	"NULL"	1	381	"fast"	NA	"Black"	"WEAP"	"Gun"
"1"	"Scherer_2015_BG"	"BlackGun"	"2"	"F"	"1"	"Inconvenience"	"LeftGun"	"heavy"	"5/8/2015"	"8:10:20"	"RunProc"	"39"	"WhiteBlack"	"whiteface2.bmp"	"BlackFace1.bmp"	"BlackFace2.bmp"	"BlackFace1.bmp"	"NULL"	"whiteface2.bmp"	"NULL"	1	523	"slow"	NA	"white"	"Blac"	"Other"
"1"	"Scherer_2015_BG"	"BlackGun"	"2"	"F"	"1"	"Inconvenience"	"LeftGun"	"heavy"	"5/8/2015"	"8:10:20"	"RunProc"	"40"	"BlackBlack"	"BlackFace3.bmp"	"BlackFace1.bmp"	"BlackFace3.bmp"	"BlackFace1.bmp"	"NULL"	"NULL"	"NULL"	1	371	"fast"	NA	"Black"	"Blac"	"Other"
"1"	"Scherer_2015_BG"	"BlackGun"	"2"	"F"	"1"	"Inconvenience"	"LeftGun"	"heavy"	"5/8/2015"	"8:10:20"	"RunProc"	"41"	"BlackBlack"	"BlackFace3.bmp"	"BlackFace2.bmp"	"BlackFace3.bmp"	"BlackFace2.bmp"	"NULL"	"NULL"	"NULL"	1	296	"fast"	NA	"Black"	"Blac"	"Other"
"1"	"Scherer_2015_BG"	"BlackGun"	"2"	"F"	"1"	"Inconvenience"	"LeftGun"	"heavy"	"5/8/2015"	"8:10:20"	"RunProc"	"42"	"BlackBlack"	"BlackFace1.bmp"	"BlackFace4.bmp"	"BlackFace1.bmp"	"BlackFace4.bmp"	"NULL"	"NULL"	"NULL"	1	380	"fast"	NA	"Black"	"Blac"	"Other"
"1"	"Scherer_2015_BG"	"BlackGun"	"2"	"F"	"1"	"Inconvenience"	"LeftGun"	"heavy"	"5/8/2015"	"8:10:20"	"RunProc"	"43"	"BlackBlack"	"BlackFace3.bmp"	"BlackFace4.bmp"	"BlackFace3.bmp"	"BlackFace4.bmp"	"NULL"	"NULL"	"NULL"	1	381	"fast"	NA	"Black"	"Blac"	"Other"
"1"	"Scherer_2015_BG"	"BlackGun"	"2"	"F"	"1"	"Inconvenience"	"LeftGun"	"heavy"	"5/8/2015"	"8:10:20"	"RunProc"	"44"	"WhiteGun"	"whiteface3.bmp"	"WEAPON1dk.bmp"	"NULL"	"NULL"	"WEAPON1dk.bmp"	"whiteface3.bmp"	"NULL"	1	278	"fast"	NA	"white"	"WEAP"	"Gun"
"1"	"Scherer_2015_BG"	"BlackGun"	"2"	"F"	"1"	"Inconvenience"	"LeftGun"	"heavy"	"5/8/2015"	"8:10:20"	"RunProc"	"45"	"BlackBlack"	"BlackFace2.bmp"	"BlackFace3.bmp"	"BlackFace2.bmp"	"BlackFace3.bmp"	"NULL"	"NULL"	"NULL"	1	344	"fast"	NA	"Black"	"Blac"	"Other"
"1"	"Scherer_2015_BG"	"BlackGun"	"2"	"F"	"1"	"Inconvenience"	"LeftGun"	"heavy"	"5/8/2015"	"8:10:20"	"RunProc"	"46"	"WhiteGun"	"whiteface1.bmp"	"WEAPON2dk.bmp"	"NULL"	"NULL"	"WEAPON2dk.bmp"	"whiteface1.bmp"	"NULL"	1	332	"fast"	NA	"white"	"WEAP"	"Gun"
"1"	"Scherer_2015_BG"	"BlackGun"	"2"	"F"	"1"	"Inconvenience"	"LeftGun"	"heavy"	"5/8/2015"	"8:10:20"	"RunProc"	"47"	"BlackGun"	"BlackFace4.bmp"	"WEAPON3dk.bmp"	"BlackFace4.bmp"	"BlackFace1.bmp"	"WEAPON3dk.bmp"	"NULL"	"NULL"	1	409	"fast"	NA	"Black"	"WEAP"	"Gun"
"1"	"Scherer_2015_BG"	"BlackGun"	"2"	"F"	"1"	"Inconvenience"	"LeftGun"	"heavy"	"5/8/2015"	"8:10:20"	"RunProc"	"48"	"WhiteBlack"	"whiteface4.bmp"	"BlackFace2.bmp"	"BlackFace1.bmp"	"BlackFace2.bmp"	"NULL"	"whiteface4.bmp"	"NULL"	1	270	"fast"	NA	"white"	"Blac"	"Other"
"1"	"Scherer_2015_BG"	"BlackGun"	"2"	"F"	"1"	"Inconvenience"	"LeftGun"	"heavy"	"5/8/2015"	"8:10:20"	"RunProc"	"49"	"BlackBlack"	"BlackFace2.bmp"	"BlackFace4.bmp"	"BlackFace2.bmp"	"BlackFace4.bmp"	"NULL"	"NULL"	"NULL"	1	280	"fast"	NA	"Black"	"Blac"	"Other"
"1"	"Scherer_2015_BG"	"BlackGun"	"2"	"F"	"1"	"Inconvenience"	"LeftGun"	"heavy"	"5/8/2015"	"8:10:20"	"RunProc"	"50"	"BlackGun"	"BlackFace4.bmp"	"WEAPON4dk.bmp"	"BlackFace4.bmp"	"BlackFace1.bmp"	"WEAPON4dk.bmp"	"NULL"	"NULL"	1	359	"fast"	NA	"Black"	"WEAP"	"Gun"
"1"	"Scherer_2015_BG"	"BlackGun"	"2"	"F"	"1"	"Inconvenience"	"LeftGun"	"heavy"	"5/8/2015"	"8:10:20"	"RunProc"	"51"	"WhiteBlack"	"whiteface3.bmp"	"BlackFace2.bmp"	"BlackFace3.bmp"	"BlackFace2.bmp"	"NULL"	"whiteface3.bmp"	"NULL"	1	391	"fast"	NA	"white"	"Blac"	"Other"
"1"	"Scherer_2015_BG"	"BlackGun"	"2"	"F"	"1"	"Inconvenience"	"LeftGun"	"heavy"	"5/8/2015"	"8:10:20"	"RunProc"	"52"	"BlackBlack"	"BlackFace1.bmp"	"BlackFace3.bmp"	"BlackFace1.bmp"	"BlackFace3.bmp"	"NULL"	"NULL"	"NULL"	1	287	"fast"	NA	"Black"	"Blac"	"Other"
"1"	"Scherer_2015_BG"	"BlackGun"	"2"	"F"	"1"	"Inconvenience"	"LeftGun"	"heavy"	"5/8/2015"	"8:10:20"	"RunProc"	"53"	"BlackBlack"	"BlackFace4.bmp"	"BlackFace3.bmp"	"BlackFace4.bmp"	"BlackFace3.bmp"	"NULL"	"NULL"	"NULL"	1	312	"fast"	NA	"Black"	"Blac"	"Other"
"1"	"Scherer_2015_BG"	"BlackGun"	"2"	"F"	"1"	"Inconvenience"	"LeftGun"	"heavy"	"5/8/2015"	"8:10:20"	"RunProc"	"54"	"BlackGun"	"BlackFace1.bmp"	"WEAPON4dk.bmp"	"BlackFace1.bmp"	"BlackFace2.bmp"	"WEAPON4dk.bmp"	"NULL"	"NULL"	1	237	"fast"	NA	"Black"	"WEAP"	"Gun"
"1"	"Scherer_2015_BG"	"BlackGun"	"2"	"F"	"1"	"Inconvenience"	"LeftGun"	"heavy"	"5/8/2015"	"8:10:20"	"RunProc"	"55"	"BlackGun"	"BlackFace2.bmp"	"WEAPON2dk.bmp"	"BlackFace2.bmp"	"BlackFace4.bmp"	"WEAPON2dk.bmp"	"NULL"	"NULL"	1	361	"fast"	NA	"Black"	"WEAP"	"Gun"
"1"	"Scherer_2015_BG"	"BlackGun"	"2"	"F"	"1"	"Inconvenience"	"LeftGun"	"heavy"	"5/8/2015"	"8:10:20"	"RunProc"	"56"	"BlackGun"	"BlackFace2.bmp"	"WEAPON3dk.bmp"	"BlackFace2.bmp"	"BlackFace1.bmp"	"WEAPON3dk.bmp"	"NULL"	"NULL"	0	330	"fast"	NA	"Black"	"WEAP"	"Gun"
"1"	"Scherer_2015_BG"	"BlackGun"	"2"	"F"	"1"	"Inconvenience"	"LeftGun"	"heavy"	"5/8/2015"	"8:10:20"	"RunProc"	"57"	"BlackGun"	"BlackFace3.bmp"	"WEAPON1dk.bmp"	"BlackFace3.bmp"	"BlackFace1.bmp"	"WEAPON1dk.bmp"	"NULL"	"NULL"	1	362	"fast"	NA	"Black"	"WEAP"	"Gun"
"1"	"Scherer_2015_BG"	"BlackGun"	"2"	"F"	"1"	"Inconvenience"	"LeftGun"	"heavy"	"5/8/2015"	"8:10:20"	"RunProc"	"58"	"WhiteBlack"	"whiteface2.bmp"	"BlackFace3.bmp"	"BlackFace2.bmp"	"BlackFace3.bmp"	"NULL"	"whiteface2.bmp"	"NULL"	1	382	"fast"	NA	"white"	"Blac"	"Other"
"1"	"Scherer_2015_BG"	"BlackGun"	"2"	"F"	"1"	"Inconvenience"	"LeftGun"	"heavy"	"5/8/2015"	"8:10:20"	"RunProc"	"59"	"WhiteGun"	"whiteface4.bmp"	"WEAPON1dk.bmp"	"NULL"	"NULL"	"WEAPON1dk.bmp"	"whiteface4.bmp"	"NULL"	1	422	"fast"	NA	"white"	"WEAP"	"Gun"
"1"	"Scherer_2015_BG"	"BlackGun"	"2"	"F"	"1"	"Inconvenience"	"LeftGun"	"heavy"	"5/8/2015"	"8:10:20"	"RunProc"	"60"	"WhiteGun"	"whiteface3.bmp"	"WEAPON4dk.bmp"	"NULL"	"NULL"	"WEAPON4dk.bmp"	"whiteface3.bmp"	"NULL"	1	252	"fast"	NA	"white"	"WEAP"	"Gun"
"1"	"Scherer_2015_BG"	"BlackGun"	"2"	"F"	"1"	"Inconvenience"	"LeftGun"	"heavy"	"5/8/2015"	"8:10:20"	"RunProc"	"62"	"WhiteGun"	"whiteface2.bmp"	"WEAPON2dk.bmp"	"NULL"	"NULL"	"WEAPON2dk.bmp"	"whiteface2.bmp"	"NULL"	1	472	"fast"	NA	"white"	"WEAP"	"Gun"
"1"	"Scherer_2015_BG"	"BlackGun"	"2"	"F"	"1"	"Inconvenience"	"LeftGun"	"heavy"	"5/8/2015"	"8:10:20"	"RunProc"	"63"	"WhiteGun"	"whiteface1.bmp"	"WEAPON3dk.bmp"	"NULL"	"NULL"	"WEAPON3dk.bmp"	"whiteface1.bmp"	"NULL"	1	435	"fast"	NA	"white"	"WEAP"	"Gun"
"1"	"Scherer_2015_BG"	"BlackGun"	"2"	"F"	"1"	"Inconvenience"	"LeftGun"	"heavy"	"5/8/2015"	"8:10:20"	"RunProc"	"64"	"WhiteBlack"	"whiteface2.bmp"	"BlackFace4.bmp"	"BlackFace3.bmp"	"BlackFace4.bmp"	"NULL"	"whiteface2.bmp"	"NULL"	1	311	"fast"	NA	"white"	"Blac"	"Other"
"1"	"Scherer_2015_BG"	"BlackGun"	"2"	"F"	"1"	"Inconvenience"	"LeftGun"	"heavy"	"5/8/2015"	"8:10:20"	"RunProc"	"65"	"BlackBlack"	"BlackFace4.bmp"	"BlackFace2.bmp"	"BlackFace4.bmp"	"BlackFace2.bmp"	"NULL"	"NULL"	"NULL"	1	322	"fast"	NA	"Black"	"Blac"	"Other"
"1"	"Scherer_2015_BG"	"BlackGun"	"2"	"F"	"1"	"Inconvenience"	"LeftGun"	"heavy"	"5/8/2015"	"8:10:20"	"RunProc"	"66"	"BlackBlack"	"BlackFace1.bmp"	"BlackFace4.bmp"	"BlackFace1.bmp"	"BlackFace4.bmp"	"NULL"	"NULL"	"NULL"	1	257	"fast"	NA	"Black"	"Blac"	"Other"
"1"	"Scherer_2015_BG"	"BlackGun"	"2"	"F"	"1"	"Inconvenience"	"LeftGun"	"heavy"	"5/8/2015"	"8:10:20"	"RunProc"	"67"	"WhiteBlack"	"whiteface4.bmp"	"BlackFace1.bmp"	"BlackFace3.bmp"	"BlackFace1.bmp"	"NULL"	"whiteface4.bmp"	"NULL"	1	336	"fast"	NA	"white"	"Blac"	"Other"
"1"	"Scherer_2015_BG"	"BlackGun"	"2"	"F"	"1"	"Inconvenience"	"LeftGun"	"heavy"	"5/8/2015"	"8:10:20"	"RunProc"	"68"	"WhiteGun"	"whiteface3.bmp"	"WEAPON1dk.bmp"	"NULL"	"NULL"	"WEAPON1dk.bmp"	"whiteface3.bmp"	"NULL"	1	300	"fast"	NA	"white"	"WEAP"	"Gun"
"1"	"Scherer_2015_BG"	"BlackGun"	"2"	"F"	"1"	"Inconvenience"	"LeftGun"	"heavy"	"5/8/2015"	"8:10:20"	"RunProc"	"69"	"BlackGun"	"BlackFace3.bmp"	"WEAPON3dk.bmp"	"BlackFace3.bmp"	"BlackFace2.bmp"	"WEAPON3dk.bmp"	"NULL"	"NULL"	1	338	"fast"	NA	"Black"	"WEAP"	"Gun"
"1"	"Scherer_2015_BG"	"BlackGun"	"2"	"F"	"1"	"Inconvenience"	"LeftGun"	"heavy"	"5/8/2015"	"8:10:20"	"RunProc"	"70"	"WhiteBlack"	"whiteface1.bmp"	"BlackFace1.bmp"	"BlackFace4.bmp"	"BlackFace1.bmp"	"NULL"	"whiteface1.bmp"	"NULL"	1	344	"fast"	NA	"white"	"Blac"	"Other"
"1"	"Scherer_2015_BG"	"BlackGun"	"2"	"F"	"1"	"Inconvenience"	"LeftGun"	"heavy"	"5/8/2015"	"8:10:20"	"RunProc"	"71"	"BlackBlack"	"BlackFace1.bmp"	"BlackFace4.bmp"	"BlackFace1.bmp"	"BlackFace4.bmp"	"NULL"	"NULL"	"NULL"	1	275	"fast"	NA	"Black"	"Blac"	"Other"
"1"	"Scherer_2015_BG"	"BlackGun"	"2"	"F"	"1"	"Inconvenience"	"LeftGun"	"heavy"	"5/8/2015"	"8:10:20"	"RunProc"	"72"	"BlackBlack"	"BlackFace2.bmp"	"BlackFace4.bmp"	"BlackFace2.bmp"	"BlackFace4.bmp"	"NULL"	"NULL"	"NULL"	1	294	"fast"	NA	"Black"	"Blac"	"Other"
"1"	"Scherer_2015_BG"	"BlackGun"	"2"	"F"	"1"	"Inconvenience"	"LeftGun"	"heavy"	"5/8/2015"	"8:10:20"	"RunProc"	"73"	"BlackBlack"	"BlackFace2.bmp"	"BlackFace3.bmp"	"BlackFace2.bmp"	"BlackFace3.bmp"	"NULL"	"NULL"	"NULL"	1	142	"fast"	NA	"Black"	"Blac"	"Other"
"1"	"Scherer_2015_BG"	"BlackGun"	"2"	"F"	"1"	"Inconvenience"	"LeftGun"	"heavy"	"5/8/2015"	"8:10:20"	"RunProc"	"74"	"WhiteBlack"	"whiteface4.bmp"	"BlackFace4.bmp"	"BlackFace3.bmp"	"BlackFace4.bmp"	"NULL"	"whiteface4.bmp"	"NULL"	1	360	"fast"	NA	"white"	"Blac"	"Other"
"1"	"Scherer_2015_BG"	"BlackGun"	"2"	"F"	"1"	"Inconvenience"	"LeftGun"	"heavy"	"5/8/2015"	"8:10:20"	"RunProc"	"75"	"BlackBlack"	"BlackFace1.bmp"	"BlackFace3.bmp"	"BlackFace1.bmp"	"BlackFace3.bmp"	"NULL"	"NULL"	"NULL"	1	324	"fast"	NA	"Black"	"Blac"	"Other"
"1"	"Scherer_2015_BG"	"BlackGun"	"2"	"F"	"1"	"Inconvenience"	"LeftGun"	"heavy"	"5/8/2015"	"8:10:20"	"RunProc"	"76"	"WhiteBlack"	"whiteface3.bmp"	"BlackFace2.bmp"	"BlackFace1.bmp"	"BlackFace2.bmp"	"NULL"	"whiteface3.bmp"	"NULL"	1	386	"fast"	NA	"white"	"Blac"	"Other"
"1"	"Scherer_2015_BG"	"BlackGun"	"2"	"F"	"1"	"Inconvenience"	"LeftGun"	"heavy"	"5/8/2015"	"8:10:20"	"RunProc"	"77"	"BlackGun"	"BlackFace4.bmp"	"WEAPON4dk.bmp"	"BlackFace4.bmp"	"BlackFace3.bmp"	"WEAPON4dk.bmp"	"NULL"	"NULL"	1	303	"fast"	NA	"Black"	"WEAP"	"Gun"
"1"	"Scherer_2015_BG"	"BlackGun"	"2"	"F"	"1"	"Inconvenience"	"LeftGun"	"heavy"	"5/8/2015"	"8:10:20"	"RunProc"	"78"	"WhiteGun"	"whiteface2.bmp"	"WEAPON2dk.bmp"	"NULL"	"NULL"	"WEAPON2dk.bmp"	"whiteface2.bmp"	"NULL"	0	221	"fast"	NA	"white"	"WEAP"	"Gun"
"1"	"Scherer_2015_BG"	"BlackGun"	"2"	"F"	"1"	"Inconvenience"	"LeftGun"	"heavy"	"5/8/2015"	"8:10:20"	"RunProc"	"79"	"WhiteBlack"	"whiteface1.bmp"	"BlackFace2.bmp"	"BlackFace4.bmp"	"BlackFace2.bmp"	"NULL"	"whiteface1.bmp"	"NULL"	1	322	"fast"	NA	"white"	"Blac"	"Other"
"1"	"Scherer_2015_BG"	"BlackGun"	"2"	"F"	"1"	"Inconvenience"	"LeftGun"	"heavy"	"5/8/2015"	"8:10:20"	"RunProc"	"80"	"BlackGun"	"BlackFace2.bmp"	"WEAPON1dk.bmp"	"BlackFace2.bmp"	"BlackFace1.bmp"	"WEAPON1dk.bmp"	"NULL"	"NULL"	1	488	"fast"	NA	"Black"	"WEAP"	"Gun"
"1"	"Scherer_2015_BG"	"BlackGun"	"2"	"F"	"1"	"Inconvenience"	"LeftGun"	"heavy"	"5/8/2015"	"8:10:20"	"RunProc"	"81"	"BlackBlack"	"BlackFace4.bmp"	"BlackFace3.bmp"	"BlackFace4.bmp"	"BlackFace3.bmp"	"NULL"	"NULL"	"NULL"	1	358	"fast"	NA	"Black"	"Blac"	"Other"
"1"	"Scherer_2015_BG"	"BlackGun"	"2"	"F"	"1"	"Inconvenience"	"LeftGun"	"heavy"	"5/8/2015"	"8:10:20"	"RunProc"	"82"	"BlackBlack"	"BlackFace3.bmp"	"BlackFace1.bmp"	"BlackFace3.bmp"	"BlackFace1.bmp"	"NULL"	"NULL"	"NULL"	1	317	"fast"	NA	"Black"	"Blac"	"Other"
"1"	"Scherer_2015_BG"	"BlackGun"	"2"	"F"	"1"	"Inconvenience"	"LeftGun"	"heavy"	"5/8/2015"	"8:10:20"	"RunProc"	"83"	"BlackBlack"	"BlackFace2.bmp"	"BlackFace4.bmp"	"BlackFace2.bmp"	"BlackFace4.bmp"	"NULL"	"NULL"	"NULL"	1	337	"fast"	NA	"Black"	"Blac"	"Other"
"1"	"Scherer_2015_BG"	"BlackGun"	"2"	"F"	"1"	"Inconvenience"	"LeftGun"	"heavy"	"5/8/2015"	"8:10:20"	"RunProc"	"84"	"BlackGun"	"BlackFace3.bmp"	"WEAPON2dk.bmp"	"BlackFace3.bmp"	"BlackFace2.bmp"	"WEAPON2dk.bmp"	"NULL"	"NULL"	1	395	"fast"	NA	"Black"	"WEAP"	"Gun"
"1"	"Scherer_2015_BG"	"BlackGun"	"2"	"F"	"1"	"Inconvenience"	"LeftGun"	"heavy"	"5/8/2015"	"8:10:20"	"RunProc"	"85"	"WhiteBlack"	"whiteface3.bmp"	"BlackFace2.bmp"	"BlackFace1.bmp"	"BlackFace2.bmp"	"NULL"	"whiteface3.bmp"	"NULL"	1	361	"fast"	NA	"white"	"Blac"	"Other"
"1"	"Scherer_2015_BG"	"BlackGun"	"2"	"F"	"1"	"Inconvenience"	"LeftGun"	"heavy"	"5/8/2015"	"8:10:20"	"RunProc"	"86"	"WhiteBlack"	"whiteface1.bmp"	"BlackFace1.bmp"	"BlackFace2.bmp"	"BlackFace1.bmp"	"NULL"	"whiteface1.bmp"	"NULL"	1	301	"fast"	NA	"white"	"Blac"	"Other"
"1"	"Scherer_2015_BG"	"BlackGun"	"2"	"F"	"1"	"Inconvenience"	"LeftGun"	"heavy"	"5/8/2015"	"8:10:20"	"RunProc"	"87"	"WhiteBlack"	"whiteface2.bmp"	"BlackFace4.bmp"	"BlackFace1.bmp"	"BlackFace4.bmp"	"NULL"	"whiteface2.bmp"	"NULL"	1	453	"fast"	NA	"white"	"Blac"	"Other"
"1"	"Scherer_2015_BG"	"BlackGun"	"2"	"F"	"1"	"Inconvenience"	"LeftGun"	"heavy"	"5/8/2015"	"8:10:20"	"RunProc"	"88"	"WhiteGun"	"whiteface4.bmp"	"WEAPON3dk.bmp"	"NULL"	"NULL"	"WEAPON3dk.bmp"	"whiteface4.bmp"	"NULL"	1	391	"fast"	NA	"white"	"WEAP"	"Gun"
"1"	"Scherer_2015_BG"	"BlackGun"	"2"	"F"	"1"	"Inconvenience"	"LeftGun"	"heavy"	"5/8/2015"	"8:10:20"	"RunProc"	"89"	"BlackGun"	"BlackFace1.bmp"	"WEAPON4dk.bmp"	"BlackFace1.bmp"	"BlackFace3.bmp"	"WEAPON4dk.bmp"	"NULL"	"NULL"	0	447	"fast"	NA	"Black"	"WEAP"	"Gun"
"1"	"Scherer_2015_BG"	"BlackGun"	"2"	"F"	"1"	"Inconvenience"	"LeftGun"	"heavy"	"5/8/2015"	"8:10:20"	"RunProc"	"90"	"BlackGun"	"BlackFace4.bmp"	"WEAPON2dk.bmp"	"BlackFace4.bmp"	"BlackFace2.bmp"	"WEAPON2dk.bmp"	"NULL"	"NULL"	1	515	"slow"	NA	"Black"	"WEAP"	"Gun"
"1"	"Scherer_2015_BG"	"BlackGun"	"2"	"F"	"1"	"Inconvenience"	"LeftGun"	"heavy"	"5/8/2015"	"8:10:20"	"RunProc"	"91"	"BlackGun"	"BlackFace2.bmp"	"WEAPON1dk.bmp"	"BlackFace2.bmp"	"BlackFace3.bmp"	"WEAPON1dk.bmp"	"NULL"	"NULL"	1	440	"fast"	NA	"Black"	"WEAP"	"Gun"
"1"	"Scherer_2015_BG"	"BlackGun"	"2"	"F"	"1"	"Inconvenience"	"LeftGun"	"heavy"	"5/8/2015"	"8:10:20"	"RunProc"	"92"	"BlackBlack"	"BlackFace4.bmp"	"BlackFace1.bmp"	"BlackFace4.bmp"	"BlackFace1.bmp"	"NULL"	"NULL"	"NULL"	1	382	"fast"	NA	"Black"	"Blac"	"Other"
"1"	"Scherer_2015_BG"	"BlackGun"	"2"	"F"	"1"	"Inconvenience"	"LeftGun"	"heavy"	"5/8/2015"	"8:10:20"	"RunProc"	"93"	"BlackGun"	"BlackFace3.bmp"	"WEAPON3dk.bmp"	"BlackFace3.bmp"	"BlackFace4.bmp"	"WEAPON3dk.bmp"	"NULL"	"NULL"	1	374	"fast"	NA	"Black"	"WEAP"	"Gun"
"1"	"Scherer_2015_BG"	"BlackGun"	"2"	"F"	"1"	"Inconvenience"	"LeftGun"	"heavy"	"5/8/2015"	"8:10:20"	"RunProc"	"94"	"WhiteGun"	"whiteface2.bmp"	"WEAPON4dk.bmp"	"NULL"	"NULL"	"WEAPON4dk.bmp"	"whiteface2.bmp"	"NULL"	0	588	"slow"	NA	"white"	"WEAP"	"Gun"
"1"	"Scherer_2015_BG"	"BlackGun"	"2"	"F"	"1"	"Inconvenience"	"LeftGun"	"heavy"	"5/8/2015"	"8:10:20"	"RunProc"	"95"	"BlackBlack"	"BlackFace2.bmp"	"BlackFace4.bmp"	"BlackFace2.bmp"	"BlackFace4.bmp"	"NULL"	"NULL"	"NULL"	0	454	"fast"	NA	"Black"	"Blac"	"Other"
"1"	"Scherer_2015_BG"	"BlackGun"	"2"	"F"	"1"	"Inconvenience"	"LeftGun"	"heavy"	"5/8/2015"	"8:10:20"	"RunProc"	"96"	"WhiteGun"	"whiteface1.bmp"	"WEAPON3dk.bmp"	"NULL"	"NULL"	"WEAPON3dk.bmp"	"whiteface1.bmp"	"NULL"	1	626	"slow"	NA	"white"	"WEAP"	"Gun"
"1"	"Scherer_2015_BG"	"BlackGun"	"2"	"F"	"1"	"Inconvenience"	"LeftGun"	"heavy"	"5/8/2015"	"8:10:20"	"RunProc"	"97"	"BlackGun"	"BlackFace1.bmp"	"WEAPON2dk.bmp"	"BlackFace1.bmp"	"BlackFace2.bmp"	"WEAPON2dk.bmp"	"NULL"	"NULL"	0	356	"fast"	NA	"Black"	"WEAP"	"Gun"
"1"	"Scherer_2015_BG"	"BlackGun"	"2"	"F"	"1"	"Inconvenience"	"LeftGun"	"heavy"	"5/8/2015"	"8:10:20"	"RunProc"	"98"	"WhiteGun"	"whiteface4.bmp"	"WEAPON1dk.bmp"	"NULL"	"NULL"	"WEAPON1dk.bmp"	"whiteface4.bmp"	"NULL"	1	378	"fast"	NA	"white"	"WEAP"	"Gun"
"1"	"Scherer_2015_BG"	"BlackGun"	"2"	"F"	"1"	"Inconvenience"	"LeftGun"	"heavy"	"5/8/2015"	"8:10:20"	"RunProc"	"99"	"WhiteGun"	"whiteface3.bmp"	"WEAPON4dk.bmp"	"NULL"	"NULL"	"WEAPON4dk.bmp"	"whiteface3.bmp"	"NULL"	1	490	"fast"	NA	"white"	"WEAP"	"Gun"
"1"	"Scherer_2015_BG"	"BlackGun"	"2"	"F"	"1"	"Inconvenience"	"LeftGun"	"heavy"	"5/8/2015"	"8:10:20"	"RunProc"	"100"	"BlackGun"	"BlackFace2.bmp"	"WEAPON2dk.bmp"	"BlackFace2.bmp"	"BlackFace1.bmp"	"WEAPON2dk.bmp"	"NULL"	"NULL"	1	495	"fast"	NA	"Black"	"WEAP"	"Gun"
"1"	"Scherer_2015_BG"	"BlackGun"	"2"	"F"	"1"	"Inconvenience"	"LeftGun"	"heavy"	"5/8/2015"	"8:10:20"	"RunProc"	"101"	"WhiteBlack"	"whiteface4.bmp"	"BlackFace3.bmp"	"BlackFace2.bmp"	"BlackFace3.bmp"	"NULL"	"whiteface4.bmp"	"NULL"	1	334	"fast"	NA	"white"	"Blac"	"Other"
"1"	"Scherer_2015_BG"	"BlackGun"	"2"	"F"	"1"	"Inconvenience"	"LeftGun"	"heavy"	"5/8/2015"	"8:10:20"	"RunProc"	"102"	"BlackGun"	"BlackFace3.bmp"	"WEAPON4dk.bmp"	"BlackFace3.bmp"	"BlackFace4.bmp"	"WEAPON4dk.bmp"	"NULL"	"NULL"	1	332	"fast"	NA	"Black"	"WEAP"	"Gun"
"1"	"Scherer_2015_BG"	"BlackGun"	"2"	"F"	"1"	"Inconvenience"	"LeftGun"	"heavy"	"5/8/2015"	"8:10:20"	"RunProc"	"103"	"BlackBlack"	"BlackFace1.bmp"	"BlackFace4.bmp"	"BlackFace1.bmp"	"BlackFace4.bmp"	"NULL"	"NULL"	"NULL"	1	437	"fast"	NA	"Black"	"Blac"	"Other"
"1"	"Scherer_2015_BG"	"BlackGun"	"2"	"F"	"1"	"Inconvenience"	"LeftGun"	"heavy"	"5/8/2015"	"8:10:20"	"RunProc"	"104"	"BlackGun"	"BlackFace4.bmp"	"WEAPON3dk.bmp"	"BlackFace4.bmp"	"BlackFace1.bmp"	"WEAPON3dk.bmp"	"NULL"	"NULL"	0	281	"fast"	NA	"Black"	"WEAP"	"Gun"
"1"	"Scherer_2015_BG"	"BlackGun"	"2"	"F"	"1"	"Inconvenience"	"LeftGun"	"heavy"	"5/8/2015"	"8:10:20"	"RunProc"	"105"	"BlackBlack"	"BlackFace4.bmp"	"BlackFace2.bmp"	"BlackFace4.bmp"	"BlackFace2.bmp"	"NULL"	"NULL"	"NULL"	1	492	"fast"	NA	"Black"	"Blac"	"Other"
"1"	"Scherer_2015_BG"	"BlackGun"	"2"	"F"	"1"	"Inconvenience"	"LeftGun"	"heavy"	"5/8/2015"	"8:10:20"	"RunProc"	"106"	"BlackGun"	"BlackFace3.bmp"	"WEAPON1dk.bmp"	"BlackFace3.bmp"	"BlackFace2.bmp"	"WEAPON1dk.bmp"	"NULL"	"NULL"	1	539	"slow"	NA	"Black"	"WEAP"	"Gun"
"1"	"Scherer_2015_BG"	"BlackGun"	"2"	"F"	"1"	"Inconvenience"	"LeftGun"	"heavy"	"5/8/2015"	"8:10:20"	"RunProc"	"107"	"WhiteGun"	"whiteface2.bmp"	"WEAPON4dk.bmp"	"NULL"	"NULL"	"WEAPON4dk.bmp"	"whiteface2.bmp"	"NULL"	1	270	"fast"	NA	"white"	"WEAP"	"Gun"
"1"	"Scherer_2015_BG"	"BlackGun"	"2"	"F"	"1"	"Inconvenience"	"LeftGun"	"heavy"	"5/8/2015"	"8:10:20"	"RunProc"	"108"	"WhiteBlack"	"whiteface1.bmp"	"BlackFace1.bmp"	"BlackFace3.bmp"	"BlackFace1.bmp"	"NULL"	"whiteface1.bmp"	"NULL"	1	299	"fast"	NA	"white"	"Blac"	"Other"
"1"	"Scherer_2015_BG"	"BlackGun"	"2"	"F"	"1"	"Inconvenience"	"LeftGun"	"heavy"	"5/8/2015"	"8:10:20"	"RunProc"	"109"	"BlackGun"	"BlackFace1.bmp"	"WEAPON3dk.bmp"	"BlackFace1.bmp"	"BlackFace3.bmp"	"WEAPON3dk.bmp"	"NULL"	"NULL"	1	285	"fast"	NA	"Black"	"WEAP"	"Gun"
"1"	"Scherer_2015_BG"	"BlackGun"	"2"	"F"	"1"	"Inconvenience"	"LeftGun"	"heavy"	"5/8/2015"	"8:10:20"	"RunProc"	"110"	"BlackGun"	"BlackFace4.bmp"	"WEAPON1dk.bmp"	"BlackFace4.bmp"	"BlackFace3.bmp"	"WEAPON1dk.bmp"	"NULL"	"NULL"	1	262	"fast"	NA	"Black"	"WEAP"	"Gun"
"1"	"Scherer_2015_BG"	"BlackGun"	"2"	"F"	"1"	"Inconvenience"	"LeftGun"	"heavy"	"5/8/2015"	"8:10:20"	"RunProc"	"111"	"WhiteGun"	"whiteface3.bmp"	"WEAPON2dk.bmp"	"NULL"	"NULL"	"WEAPON2dk.bmp"	"whiteface3.bmp"	"NULL"	0	325	"fast"	NA	"white"	"WEAP"	"Gun"
"1"	"Scherer_2015_BG"	"BlackGun"	"2"	"F"	"1"	"Inconvenience"	"LeftGun"	"heavy"	"5/8/2015"	"8:10:20"	"RunProc"	"112"	"WhiteGun"	"whiteface3.bmp"	"WEAPON4dk.bmp"	"NULL"	"NULL"	"WEAPON4dk.bmp"	"whiteface3.bmp"	"NULL"	0	444	"fast"	NA	"white"	"WEAP"	"Gun"
"1"	"Scherer_2015_BG"	"BlackGun"	"2"	"F"	"1"	"Inconvenience"	"LeftGun"	"heavy"	"5/8/2015"	"8:10:20"	"RunProc"	"113"	"WhiteBlack"	"whiteface2.bmp"	"BlackFace4.bmp"	"BlackFace2.bmp"	"BlackFace4.bmp"	"NULL"	"whiteface2.bmp"	"NULL"	1	411	"fast"	NA	"white"	"Blac"	"Other"
"1"	"Scherer_2015_BG"	"BlackGun"	"2"	"F"	"1"	"Inconvenience"	"LeftGun"	"heavy"	"5/8/2015"	"8:10:20"	"RunProc"	"114"	"WhiteBlack"	"whiteface4.bmp"	"BlackFace4.bmp"	"BlackFace1.bmp"	"BlackFace4.bmp"	"NULL"	"whiteface4.bmp"	"NULL"	0	264	"fast"	NA	"white"	"Blac"	"Other"
"1"	"Scherer_2015_BG"	"BlackGun"	"2"	"F"	"1"	"Inconvenience"	"LeftGun"	"heavy"	"5/8/2015"	"8:10:20"	"RunProc"	"115"	"WhiteGun"	"whiteface1.bmp"	"WEAPON3dk.bmp"	"NULL"	"NULL"	"WEAPON3dk.bmp"	"whiteface1.bmp"	"NULL"	1	524	"slow"	NA	"white"	"WEAP"	"Gun"
"1"	"Scherer_2015_BG"	"BlackGun"	"2"	"F"	"1"	"Inconvenience"	"LeftGun"	"heavy"	"5/8/2015"	"8:10:20"	"RunProc"	"116"	"WhiteGun"	"whiteface2.bmp"	"WEAPON1dk.bmp"	"NULL"	"NULL"	"WEAPON1dk.bmp"	"whiteface2.bmp"	"NULL"	1	308	"fast"	NA	"white"	"WEAP"	"Gun"
"1"	"Scherer_2015_BG"	"BlackGun"	"2"	"F"	"1"	"Inconvenience"	"LeftGun"	"heavy"	"5/8/2015"	"8:10:20"	"RunProc"	"117"	"BlackBlack"	"BlackFace3.bmp"	"BlackFace2.bmp"	"BlackFace3.bmp"	"BlackFace2.bmp"	"NULL"	"NULL"	"NULL"	1	333	"fast"	NA	"Black"	"Blac"	"Other"
"1"	"Scherer_2015_BG"	"BlackGun"	"2"	"F"	"1"	"Inconvenience"	"LeftGun"	"heavy"	"5/8/2015"	"8:10:20"	"RunProc"	"118"	"BlackBlack"	"BlackFace4.bmp"	"BlackFace2.bmp"	"BlackFace4.bmp"	"BlackFace2.bmp"	"NULL"	"NULL"	"NULL"	1	366	"fast"	NA	"Black"	"Blac"	"Other"
"1"	"Scherer_2015_BG"	"BlackGun"	"2"	"F"	"1"	"Inconvenience"	"LeftGun"	"heavy"	"5/8/2015"	"8:10:20"	"RunProc"	"119"	"WhiteBlack"	"whiteface3.bmp"	"BlackFace3.bmp"	"BlackFace2.bmp"	"BlackFace3.bmp"	"NULL"	"whiteface3.bmp"	"NULL"	1	435	"fast"	NA	"white"	"Blac"	"Other"
"1"	"Scherer_2015_BG"	"BlackGun"	"2"	"F"	"1"	"Inconvenience"	"LeftGun"	"heavy"	"5/8/2015"	"8:10:20"	"RunProc"	"120"	"WhiteGun"	"whiteface4.bmp"	"WEAPON2dk.bmp"	"NULL"	"NULL"	"WEAPON2dk.bmp"	"whiteface4.bmp"	"NULL"	1	401	"fast"	NA	"white"	"WEAP"	"Gun"
"1"	"Scherer_2015_BG"	"BlackGun"	"2"	"F"	"1"	"Inconvenience"	"LeftGun"	"heavy"	"5/8/2015"	"8:10:20"	"RunProc"	"121"	"WhiteBlack"	"whiteface1.bmp"	"BlackFace1.bmp"	"BlackFace4.bmp"	"BlackFace1.bmp"	"NULL"	"whiteface1.bmp"	"NULL"	1	435	"fast"	NA	"white"	"Blac"	"Other"
"12"	"Scherer_2015_BG"	"BlackGun"	"2"	"F"	"5"	"Inconvenience"	"RightGun"	"small"	"5/8/2015"	"10:45:48"	"RunProc"	"1"	"WhiteBlack"	"whiteface4.bmp"	"BlackFace2.bmp"	"BlackFace1.bmp"	"BlackFace2.bmp"	"NULL"	"whiteface4.bmp"	"NULL"	1	299	"fast"	NA	"white"	"Blac"	"Other"
"12"	"Scherer_2015_BG"	"BlackGun"	"2"	"F"	"5"	"Inconvenience"	"RightGun"	"small"	"5/8/2015"	"10:45:48"	"RunProc"	"2"	"WhiteGun"	"whiteface1.bmp"	"WEAPON2dk.bmp"	"NULL"	"NULL"	"WEAPON2dk.bmp"	"whiteface1.bmp"	"NULL"	1	280	"fast"	NA	"white"	"WEAP"	"Gun"
"12"	"Scherer_2015_BG"	"BlackGun"	"2"	"F"	"5"	"Inconvenience"	"RightGun"	"small"	"5/8/2015"	"10:45:48"	"RunProc"	"3"	"BlackGun"	"BlackFace2.bmp"	"WEAPON3dk.bmp"	"BlackFace2.bmp"	"BlackFace3.bmp"	"WEAPON3dk.bmp"	"NULL"	"NULL"	1	315	"fast"	NA	"Black"	"WEAP"	"Gun"
"12"	"Scherer_2015_BG"	"BlackGun"	"2"	"F"	"5"	"Inconvenience"	"RightGun"	"small"	"5/8/2015"	"10:45:48"	"RunProc"	"4"	"WhiteBlack"	"whiteface2.bmp"	"BlackFace2.bmp"	"BlackFace4.bmp"	"BlackFace2.bmp"	"NULL"	"whiteface2.bmp"	"NULL"	1	249	"fast"	NA	"white"	"Blac"	"Other"
"12"	"Scherer_2015_BG"	"BlackGun"	"2"	"F"	"5"	"Inconvenience"	"RightGun"	"small"	"5/8/2015"	"10:45:48"	"RunProc"	"5"	"BlackBlack"	"BlackFace1.bmp"	"BlackFace3.bmp"	"BlackFace1.bmp"	"BlackFace3.bmp"	"NULL"	"NULL"	"NULL"	1	276	"fast"	NA	"Black"	"Blac"	"Other"
"12"	"Scherer_2015_BG"	"BlackGun"	"2"	"F"	"5"	"Inconvenience"	"RightGun"	"small"	"5/8/2015"	"10:45:48"	"RunProc"	"6"	"WhiteGun"	"whiteface3.bmp"	"WEAPON1dk.bmp"	"NULL"	"NULL"	"WEAPON1dk.bmp"	"whiteface3.bmp"	"NULL"	1	250	"fast"	NA	"white"	"WEAP"	"Gun"
"12"	"Scherer_2015_BG"	"BlackGun"	"2"	"F"	"5"	"Inconvenience"	"RightGun"	"small"	"5/8/2015"	"10:45:48"	"RunProc"	"7"	"WhiteBlack"	"whiteface4.bmp"	"BlackFace1.bmp"	"BlackFace3.bmp"	"BlackFace1.bmp"	"NULL"	"whiteface4.bmp"	"NULL"	1	291	"fast"	NA	"white"	"Blac"	"Other"
"12"	"Scherer_2015_BG"	"BlackGun"	"2"	"F"	"5"	"Inconvenience"	"RightGun"	"small"	"5/8/2015"	"10:45:48"	"RunProc"	"8"	"BlackGun"	"BlackFace2.bmp"	"WEAPON4dk.bmp"	"BlackFace2.bmp"	"BlackFace4.bmp"	"WEAPON4dk.bmp"	"NULL"	"NULL"	1	321	"fast"	NA	"Black"	"WEAP"	"Gun"
"12"	"Scherer_2015_BG"	"BlackGun"	"2"	"F"	"5"	"Inconvenience"	"RightGun"	"small"	"5/8/2015"	"10:45:48"	"RunProc"	"9"	"WhiteGun"	"whiteface2.bmp"	"WEAPON4dk.bmp"	"NULL"	"NULL"	"WEAPON4dk.bmp"	"whiteface2.bmp"	"NULL"	0	296	"fast"	NA	"white"	"WEAP"	"Gun"
"12"	"Scherer_2015_BG"	"BlackGun"	"2"	"F"	"5"	"Inconvenience"	"RightGun"	"small"	"5/8/2015"	"10:45:48"	"RunProc"	"10"	"WhiteGun"	"whiteface3.bmp"	"WEAPON1dk.bmp"	"NULL"	"NULL"	"WEAPON1dk.bmp"	"whiteface3.bmp"	"NULL"	1	294	"fast"	NA	"white"	"WEAP"	"Gun"
"12"	"Scherer_2015_BG"	"BlackGun"	"2"	"F"	"5"	"Inconvenience"	"RightGun"	"small"	"5/8/2015"	"10:45:48"	"RunProc"	"11"	"BlackBlack"	"BlackFace2.bmp"	"BlackFace1.bmp"	"BlackFace2.bmp"	"BlackFace1.bmp"	"NULL"	"NULL"	"NULL"	1	283	"fast"	NA	"Black"	"Blac"	"Other"
"12"	"Scherer_2015_BG"	"BlackGun"	"2"	"F"	"5"	"Inconvenience"	"RightGun"	"small"	"5/8/2015"	"10:45:48"	"RunProc"	"12"	"BlackBlack"	"BlackFace3.bmp"	"BlackFace2.bmp"	"BlackFace3.bmp"	"BlackFace2.bmp"	"NULL"	"NULL"	"NULL"	1	222	"fast"	NA	"Black"	"Blac"	"Other"
"12"	"Scherer_2015_BG"	"BlackGun"	"2"	"F"	"5"	"Inconvenience"	"RightGun"	"small"	"5/8/2015"	"10:45:48"	"RunProc"	"13"	"WhiteBlack"	"whiteface1.bmp"	"BlackFace4.bmp"	"BlackFace1.bmp"	"BlackFace4.bmp"	"NULL"	"whiteface1.bmp"	"NULL"	1	171	"fast"	NA	"white"	"Blac"	"Other"
"12"	"Scherer_2015_BG"	"BlackGun"	"2"	"F"	"5"	"Inconvenience"	"RightGun"	"small"	"5/8/2015"	"10:45:48"	"RunProc"	"14"	"BlackBlack"	"BlackFace3.bmp"	"BlackFace4.bmp"	"BlackFace3.bmp"	"BlackFace4.bmp"	"NULL"	"NULL"	"NULL"	1	315	"fast"	NA	"Black"	"Blac"	"Other"
"12"	"Scherer_2015_BG"	"BlackGun"	"2"	"F"	"5"	"Inconvenience"	"RightGun"	"small"	"5/8/2015"	"10:45:48"	"RunProc"	"15"	"BlackGun"	"BlackFace4.bmp"	"WEAPON3dk.bmp"	"BlackFace4.bmp"	"BlackFace3.bmp"	"WEAPON3dk.bmp"	"NULL"	"NULL"	1	296	"fast"	NA	"Black"	"WEAP"	"Gun"
"12"	"Scherer_2015_BG"	"BlackGun"	"2"	"F"	"5"	"Inconvenience"	"RightGun"	"small"	"5/8/2015"	"10:45:48"	"RunProc"	"16"	"BlackBlack"	"BlackFace4.bmp"	"BlackFace1.bmp"	"BlackFace4.bmp"	"BlackFace1.bmp"	"NULL"	"NULL"	"NULL"	1	270	"fast"	NA	"Black"	"Blac"	"Other"
"12"	"Scherer_2015_BG"	"BlackGun"	"2"	"F"	"5"	"Inconvenience"	"RightGun"	"small"	"5/8/2015"	"10:45:48"	"RunProc"	"17"	"WhiteBlack"	"whiteface3.bmp"	"BlackFace3.bmp"	"BlackFace4.bmp"	"BlackFace3.bmp"	"NULL"	"whiteface3.bmp"	"NULL"	1	253	"fast"	NA	"white"	"Blac"	"Other"
"12"	"Scherer_2015_BG"	"BlackGun"	"2"	"F"	"5"	"Inconvenience"	"RightGun"	"small"	"5/8/2015"	"10:45:48"	"RunProc"	"18"	"WhiteBlack"	"whiteface1.bmp"	"BlackFace1.bmp"	"BlackFace2.bmp"	"BlackFace1.bmp"	"NULL"	"whiteface1.bmp"	"NULL"	1	238	"fast"	NA	"white"	"Blac"	"Other"
"12"	"Scherer_2015_BG"	"BlackGun"	"2"	"F"	"5"	"Inconvenience"	"RightGun"	"small"	"5/8/2015"	"10:45:48"	"RunProc"	"19"	"BlackGun"	"BlackFace1.bmp"	"WEAPON2dk.bmp"	"BlackFace1.bmp"	"BlackFace2.bmp"	"WEAPON2dk.bmp"	"NULL"	"NULL"	0	189	"fast"	NA	"Black"	"WEAP"	"Gun"
"12"	"Scherer_2015_BG"	"BlackGun"	"2"	"F"	"5"	"Inconvenience"	"RightGun"	"small"	"5/8/2015"	"10:45:48"	"RunProc"	"20"	"BlackGun"	"BlackFace3.bmp"	"WEAPON4dk.bmp"	"BlackFace3.bmp"	"BlackFace1.bmp"	"WEAPON4dk.bmp"	"NULL"	"NULL"	1	498	"fast"	NA	"Black"	"WEAP"	"Gun"
"12"	"Scherer_2015_BG"	"BlackGun"	"2"	"F"	"5"	"Inconvenience"	"RightGun"	"small"	"5/8/2015"	"10:45:48"	"RunProc"	"21"	"WhiteGun"	"whiteface2.bmp"	"WEAPON3dk.bmp"	"NULL"	"NULL"	"WEAPON3dk.bmp"	"whiteface2.bmp"	"NULL"	1	348	"fast"	NA	"white"	"WEAP"	"Gun"
"12"	"Scherer_2015_BG"	"BlackGun"	"2"	"F"	"5"	"Inconvenience"	"RightGun"	"small"	"5/8/2015"	"10:45:48"	"RunProc"	"22"	"WhiteBlack"	"whiteface4.bmp"	"BlackFace2.bmp"	"BlackFace3.bmp"	"BlackFace2.bmp"	"NULL"	"whiteface4.bmp"	"NULL"	1	380	"fast"	NA	"white"	"Blac"	"Other"
"12"	"Scherer_2015_BG"	"BlackGun"	"2"	"F"	"5"	"Inconvenience"	"RightGun"	"small"	"5/8/2015"	"10:45:48"	"RunProc"	"23"	"WhiteBlack"	"whiteface1.bmp"	"BlackFace2.bmp"	"BlackFace4.bmp"	"BlackFace2.bmp"	"NULL"	"whiteface1.bmp"	"NULL"	1	286	"fast"	NA	"white"	"Blac"	"Other"
"12"	"Scherer_2015_BG"	"BlackGun"	"2"	"F"	"5"	"Inconvenience"	"RightGun"	"small"	"5/8/2015"	"10:45:48"	"RunProc"	"24"	"WhiteGun"	"whiteface4.bmp"	"WEAPON2dk.bmp"	"NULL"	"NULL"	"WEAPON2dk.bmp"	"whiteface4.bmp"	"NULL"	1	305	"fast"	NA	"white"	"WEAP"	"Gun"
"12"	"Scherer_2015_BG"	"BlackGun"	"2"	"F"	"5"	"Inconvenience"	"RightGun"	"small"	"5/8/2015"	"10:45:48"	"RunProc"	"25"	"BlackBlack"	"BlackFace2.bmp"	"BlackFace3.bmp"	"BlackFace2.bmp"	"BlackFace3.bmp"	"NULL"	"NULL"	"NULL"	1	296	"fast"	NA	"Black"	"Blac"	"Other"
"12"	"Scherer_2015_BG"	"BlackGun"	"2"	"F"	"5"	"Inconvenience"	"RightGun"	"small"	"5/8/2015"	"10:45:48"	"RunProc"	"26"	"WhiteGun"	"whiteface2.bmp"	"WEAPON1dk.bmp"	"NULL"	"NULL"	"WEAPON1dk.bmp"	"whiteface2.bmp"	"NULL"	1	324	"fast"	NA	"white"	"WEAP"	"Gun"
"12"	"Scherer_2015_BG"	"BlackGun"	"2"	"F"	"5"	"Inconvenience"	"RightGun"	"small"	"5/8/2015"	"10:45:48"	"RunProc"	"27"	"BlackBlack"	"BlackFace4.bmp"	"BlackFace1.bmp"	"BlackFace4.bmp"	"BlackFace1.bmp"	"NULL"	"NULL"	"NULL"	1	284	"fast"	NA	"Black"	"Blac"	"Other"
"12"	"Scherer_2015_BG"	"BlackGun"	"2"	"F"	"5"	"Inconvenience"	"RightGun"	"small"	"5/8/2015"	"10:45:48"	"RunProc"	"28"	"WhiteBlack"	"whiteface3.bmp"	"BlackFace4.bmp"	"BlackFace3.bmp"	"BlackFace4.bmp"	"NULL"	"whiteface3.bmp"	"NULL"	1	375	"fast"	NA	"white"	"Blac"	"Other"
"12"	"Scherer_2015_BG"	"BlackGun"	"2"	"F"	"5"	"Inconvenience"	"RightGun"	"small"	"5/8/2015"	"10:45:48"	"RunProc"	"29"	"WhiteBlack"	"whiteface3.bmp"	"BlackFace4.bmp"	"BlackFace1.bmp"	"BlackFace4.bmp"	"NULL"	"whiteface3.bmp"	"NULL"	1	304	"fast"	NA	"white"	"Blac"	"Other"
"12"	"Scherer_2015_BG"	"BlackGun"	"2"	"F"	"5"	"Inconvenience"	"RightGun"	"small"	"5/8/2015"	"10:45:48"	"RunProc"	"30"	"BlackGun"	"BlackFace1.bmp"	"WEAPON4dk.bmp"	"BlackFace1.bmp"	"BlackFace3.bmp"	"WEAPON4dk.bmp"	"NULL"	"NULL"	1	252	"fast"	NA	"Black"	"WEAP"	"Gun"
"12"	"Scherer_2015_BG"	"BlackGun"	"2"	"F"	"5"	"Inconvenience"	"RightGun"	"small"	"5/8/2015"	"10:45:48"	"RunProc"	"31"	"BlackBlack"	"BlackFace2.bmp"	"BlackFace4.bmp"	"BlackFace2.bmp"	"BlackFace4.bmp"	"NULL"	"NULL"	"NULL"	1	264	"fast"	NA	"Black"	"Blac"	"Other"
"12"	"Scherer_2015_BG"	"BlackGun"	"2"	"F"	"5"	"Inconvenience"	"RightGun"	"small"	"5/8/2015"	"10:45:48"	"RunProc"	"32"	"BlackBlack"	"BlackFace4.bmp"	"BlackFace3.bmp"	"BlackFace4.bmp"	"BlackFace3.bmp"	"NULL"	"NULL"	"NULL"	1	253	"fast"	NA	"Black"	"Blac"	"Other"
"12"	"Scherer_2015_BG"	"BlackGun"	"2"	"F"	"5"	"Inconvenience"	"RightGun"	"small"	"5/8/2015"	"10:45:48"	"RunProc"	"33"	"BlackBlack"	"BlackFace2.bmp"	"BlackFace3.bmp"	"BlackFace2.bmp"	"BlackFace3.bmp"	"NULL"	"NULL"	"NULL"	1	281	"fast"	NA	"Black"	"Blac"	"Other"
"12"	"Scherer_2015_BG"	"BlackGun"	"2"	"F"	"5"	"Inconvenience"	"RightGun"	"small"	"5/8/2015"	"10:45:48"	"RunProc"	"34"	"BlackBlack"	"BlackFace1.bmp"	"BlackFace3.bmp"	"BlackFace1.bmp"	"BlackFace3.bmp"	"NULL"	"NULL"	"NULL"	1	268	"fast"	NA	"Black"	"Blac"	"Other"
"12"	"Scherer_2015_BG"	"BlackGun"	"2"	"F"	"5"	"Inconvenience"	"RightGun"	"small"	"5/8/2015"	"10:45:48"	"RunProc"	"35"	"WhiteGun"	"whiteface4.bmp"	"WEAPON2dk.bmp"	"NULL"	"NULL"	"WEAPON2dk.bmp"	"whiteface4.bmp"	"NULL"	1	336	"fast"	NA	"white"	"WEAP"	"Gun"
"12"	"Scherer_2015_BG"	"BlackGun"	"2"	"F"	"5"	"Inconvenience"	"RightGun"	"small"	"5/8/2015"	"10:45:48"	"RunProc"	"36"	"WhiteGun"	"whiteface1.bmp"	"WEAPON3dk.bmp"	"NULL"	"NULL"	"WEAPON3dk.bmp"	"whiteface1.bmp"	"NULL"	1	293	"fast"	NA	"white"	"WEAP"	"Gun"
"12"	"Scherer_2015_BG"	"BlackGun"	"2"	"F"	"5"	"Inconvenience"	"RightGun"	"small"	"5/8/2015"	"10:45:48"	"RunProc"	"37"	"BlackGun"	"BlackFace3.bmp"	"WEAPON1dk.bmp"	"BlackFace3.bmp"	"BlackFace1.bmp"	"WEAPON1dk.bmp"	"NULL"	"NULL"	0	205	"fast"	NA	"Black"	"WEAP"	"Gun"
"12"	"Scherer_2015_BG"	"BlackGun"	"2"	"F"	"5"	"Inconvenience"	"RightGun"	"small"	"5/8/2015"	"10:45:48"	"RunProc"	"38"	"WhiteGun"	"whiteface2.bmp"	"WEAPON3dk.bmp"	"NULL"	"NULL"	"WEAPON3dk.bmp"	"whiteface2.bmp"	"NULL"	1	330	"fast"	NA	"white"	"WEAP"	"Gun"
"12"	"Scherer_2015_BG"	"BlackGun"	"2"	"F"	"5"	"Inconvenience"	"RightGun"	"small"	"5/8/2015"	"10:45:48"	"RunProc"	"39"	"BlackGun"	"BlackFace4.bmp"	"WEAPON1dk.bmp"	"BlackFace4.bmp"	"BlackFace2.bmp"	"WEAPON1dk.bmp"	"NULL"	"NULL"	1	296	"fast"	NA	"Black"	"WEAP"	"Gun"
"12"	"Scherer_2015_BG"	"BlackGun"	"2"	"F"	"5"	"Inconvenience"	"RightGun"	"small"	"5/8/2015"	"10:45:48"	"RunProc"	"40"	"WhiteGun"	"whiteface1.bmp"	"WEAPON4dk.bmp"	"NULL"	"NULL"	"WEAPON4dk.bmp"	"whiteface1.bmp"	"NULL"	1	289	"fast"	NA	"white"	"WEAP"	"Gun"
"12"	"Scherer_2015_BG"	"BlackGun"	"2"	"F"	"5"	"Inconvenience"	"RightGun"	"small"	"5/8/2015"	"10:45:48"	"RunProc"	"41"	"WhiteGun"	"whiteface3.bmp"	"WEAPON2dk.bmp"	"NULL"	"NULL"	"WEAPON2dk.bmp"	"whiteface3.bmp"	"NULL"	0	272	"fast"	NA	"white"	"WEAP"	"Gun"
"12"	"Scherer_2015_BG"	"BlackGun"	"2"	"F"	"5"	"Inconvenience"	"RightGun"	"small"	"5/8/2015"	"10:45:48"	"RunProc"	"42"	"BlackGun"	"BlackFace1.bmp"	"WEAPON2dk.bmp"	"BlackFace1.bmp"	"BlackFace4.bmp"	"WEAPON2dk.bmp"	"NULL"	"NULL"	1	343	"fast"	NA	"Black"	"WEAP"	"Gun"
"12"	"Scherer_2015_BG"	"BlackGun"	"2"	"F"	"5"	"Inconvenience"	"RightGun"	"small"	"5/8/2015"	"10:45:48"	"RunProc"	"43"	"WhiteBlack"	"whiteface2.bmp"	"BlackFace2.bmp"	"BlackFace1.bmp"	"BlackFace2.bmp"	"NULL"	"whiteface2.bmp"	"NULL"	1	322	"fast"	NA	"white"	"Blac"	"Other"
"12"	"Scherer_2015_BG"	"BlackGun"	"2"	"F"	"5"	"Inconvenience"	"RightGun"	"small"	"5/8/2015"	"10:45:48"	"RunProc"	"44"	"BlackGun"	"BlackFace2.bmp"	"WEAPON4dk.bmp"	"BlackFace2.bmp"	"BlackFace4.bmp"	"WEAPON4dk.bmp"	"NULL"	"NULL"	1	283	"fast"	NA	"Black"	"WEAP"	"Gun"
"12"	"Scherer_2015_BG"	"BlackGun"	"2"	"F"	"5"	"Inconvenience"	"RightGun"	"small"	"5/8/2015"	"10:45:48"	"RunProc"	"45"	"WhiteBlack"	"whiteface4.bmp"	"BlackFace2.bmp"	"BlackFace3.bmp"	"BlackFace2.bmp"	"NULL"	"whiteface4.bmp"	"NULL"	1	337	"fast"	NA	"white"	"Blac"	"Other"
"12"	"Scherer_2015_BG"	"BlackGun"	"2"	"F"	"5"	"Inconvenience"	"RightGun"	"small"	"5/8/2015"	"10:45:48"	"RunProc"	"46"	"BlackBlack"	"BlackFace4.bmp"	"BlackFace1.bmp"	"BlackFace4.bmp"	"BlackFace1.bmp"	"NULL"	"NULL"	"NULL"	1	317	"fast"	NA	"Black"	"Blac"	"Other"
"12"	"Scherer_2015_BG"	"BlackGun"	"2"	"F"	"5"	"Inconvenience"	"RightGun"	"small"	"5/8/2015"	"10:45:48"	"RunProc"	"47"	"BlackGun"	"BlackFace2.bmp"	"WEAPON1dk.bmp"	"BlackFace2.bmp"	"BlackFace1.bmp"	"WEAPON1dk.bmp"	"NULL"	"NULL"	1	282	"fast"	NA	"Black"	"WEAP"	"Gun"
"12"	"Scherer_2015_BG"	"BlackGun"	"2"	"F"	"5"	"Inconvenience"	"RightGun"	"small"	"5/8/2015"	"10:45:48"	"RunProc"	"48"	"WhiteGun"	"whiteface3.bmp"	"WEAPON3dk.bmp"	"NULL"	"NULL"	"WEAPON3dk.bmp"	"whiteface3.bmp"	"NULL"	1	325	"fast"	NA	"white"	"WEAP"	"Gun"
"12"	"Scherer_2015_BG"	"BlackGun"	"2"	"F"	"5"	"Inconvenience"	"RightGun"	"small"	"5/8/2015"	"10:45:48"	"RunProc"	"49"	"BlackGun"	"BlackFace3.bmp"	"WEAPON1dk.bmp"	"BlackFace3.bmp"	"BlackFace4.bmp"	"WEAPON1dk.bmp"	"NULL"	"NULL"	1	377	"fast"	NA	"Black"	"WEAP"	"Gun"
"12"	"Scherer_2015_BG"	"BlackGun"	"2"	"F"	"5"	"Inconvenience"	"RightGun"	"small"	"5/8/2015"	"10:45:48"	"RunProc"	"50"	"BlackGun"	"BlackFace2.bmp"	"WEAPON4dk.bmp"	"BlackFace2.bmp"	"BlackFace4.bmp"	"WEAPON4dk.bmp"	"NULL"	"NULL"	1	326	"fast"	NA	"Black"	"WEAP"	"Gun"
"12"	"Scherer_2015_BG"	"BlackGun"	"2"	"F"	"5"	"Inconvenience"	"RightGun"	"small"	"5/8/2015"	"10:45:48"	"RunProc"	"51"	"WhiteBlack"	"whiteface2.bmp"	"BlackFace2.bmp"	"BlackFace3.bmp"	"BlackFace2.bmp"	"NULL"	"whiteface2.bmp"	"NULL"	1	293	"fast"	NA	"white"	"Blac"	"Other"
"12"	"Scherer_2015_BG"	"BlackGun"	"2"	"F"	"5"	"Inconvenience"	"RightGun"	"small"	"5/8/2015"	"10:45:48"	"RunProc"	"52"	"BlackBlack"	"BlackFace1.bmp"	"BlackFace4.bmp"	"BlackFace1.bmp"	"BlackFace4.bmp"	"NULL"	"NULL"	"NULL"	1	300	"fast"	NA	"Black"	"Blac"	"Other"
"12"	"Scherer_2015_BG"	"BlackGun"	"2"	"F"	"5"	"Inconvenience"	"RightGun"	"small"	"5/8/2015"	"10:45:48"	"RunProc"	"53"	"BlackGun"	"BlackFace1.bmp"	"WEAPON3dk.bmp"	"BlackFace1.bmp"	"BlackFace2.bmp"	"WEAPON3dk.bmp"	"NULL"	"NULL"	1	307	"fast"	NA	"Black"	"WEAP"	"Gun"
"12"	"Scherer_2015_BG"	"BlackGun"	"2"	"F"	"5"	"Inconvenience"	"RightGun"	"small"	"5/8/2015"	"10:45:48"	"RunProc"	"54"	"BlackBlack"	"BlackFace1.bmp"	"BlackFace3.bmp"	"BlackFace1.bmp"	"BlackFace3.bmp"	"NULL"	"NULL"	"NULL"	1	318	"fast"	NA	"Black"	"Blac"	"Other"
"12"	"Scherer_2015_BG"	"BlackGun"	"2"	"F"	"5"	"Inconvenience"	"RightGun"	"small"	"5/8/2015"	"10:45:48"	"RunProc"	"55"	"BlackBlack"	"BlackFace3.bmp"	"BlackFace1.bmp"	"BlackFace3.bmp"	"BlackFace1.bmp"	"NULL"	"NULL"	"NULL"	1	250	"fast"	NA	"Black"	"Blac"	"Other"
"12"	"Scherer_2015_BG"	"BlackGun"	"2"	"F"	"5"	"Inconvenience"	"RightGun"	"small"	"5/8/2015"	"10:45:48"	"RunProc"	"56"	"WhiteGun"	"whiteface4.bmp"	"WEAPON2dk.bmp"	"NULL"	"NULL"	"WEAPON2dk.bmp"	"whiteface4.bmp"	"NULL"	1	315	"fast"	NA	"white"	"WEAP"	"Gun"
"12"	"Scherer_2015_BG"	"BlackGun"	"2"	"F"	"5"	"Inconvenience"	"RightGun"	"small"	"5/8/2015"	"10:45:48"	"RunProc"	"57"	"WhiteGun"	"whiteface1.bmp"	"WEAPON4dk.bmp"	"NULL"	"NULL"	"WEAPON4dk.bmp"	"whiteface1.bmp"	"NULL"	1	322	"fast"	NA	"white"	"WEAP"	"Gun"
"12"	"Scherer_2015_BG"	"BlackGun"	"2"	"F"	"5"	"Inconvenience"	"RightGun"	"small"	"5/8/2015"	"10:45:48"	"RunProc"	"58"	"WhiteBlack"	"whiteface1.bmp"	"BlackFace3.bmp"	"BlackFace4.bmp"	"BlackFace3.bmp"	"NULL"	"whiteface1.bmp"	"NULL"	0	340	"fast"	NA	"white"	"Blac"	"Other"
"12"	"Scherer_2015_BG"	"BlackGun"	"2"	"F"	"5"	"Inconvenience"	"RightGun"	"small"	"5/8/2015"	"10:45:48"	"RunProc"	"59"	"BlackGun"	"BlackFace4.bmp"	"WEAPON1dk.bmp"	"BlackFace4.bmp"	"BlackFace2.bmp"	"WEAPON1dk.bmp"	"NULL"	"NULL"	1	381	"fast"	NA	"Black"	"WEAP"	"Gun"
"12"	"Scherer_2015_BG"	"BlackGun"	"2"	"F"	"5"	"Inconvenience"	"RightGun"	"small"	"5/8/2015"	"10:45:48"	"RunProc"	"60"	"WhiteBlack"	"whiteface4.bmp"	"BlackFace4.bmp"	"BlackFace3.bmp"	"BlackFace4.bmp"	"NULL"	"whiteface4.bmp"	"NULL"	1	307	"fast"	NA	"white"	"Blac"	"Other"
"12"	"Scherer_2015_BG"	"BlackGun"	"2"	"F"	"5"	"Inconvenience"	"RightGun"	"small"	"5/8/2015"	"10:45:48"	"RunProc"	"62"	"WhiteBlack"	"whiteface3.bmp"	"BlackFace1.bmp"	"BlackFace2.bmp"	"BlackFace1.bmp"	"NULL"	"whiteface3.bmp"	"NULL"	1	304	"fast"	NA	"white"	"Blac"	"Other"
"12"	"Scherer_2015_BG"	"BlackGun"	"2"	"F"	"5"	"Inconvenience"	"RightGun"	"small"	"5/8/2015"	"10:45:48"	"RunProc"	"63"	"BlackBlack"	"BlackFace4.bmp"	"BlackFace1.bmp"	"BlackFace4.bmp"	"BlackFace1.bmp"	"NULL"	"NULL"	"NULL"	1	252	"fast"	NA	"Black"	"Blac"	"Other"
"12"	"Scherer_2015_BG"	"BlackGun"	"2"	"F"	"5"	"Inconvenience"	"RightGun"	"small"	"5/8/2015"	"10:45:48"	"RunProc"	"64"	"BlackBlack"	"BlackFace2.bmp"	"BlackFace3.bmp"	"BlackFace2.bmp"	"BlackFace3.bmp"	"NULL"	"NULL"	"NULL"	1	266	"fast"	NA	"Black"	"Blac"	"Other"
"12"	"Scherer_2015_BG"	"BlackGun"	"2"	"F"	"5"	"Inconvenience"	"RightGun"	"small"	"5/8/2015"	"10:45:48"	"RunProc"	"65"	"WhiteGun"	"whiteface2.bmp"	"WEAPON3dk.bmp"	"NULL"	"NULL"	"WEAPON3dk.bmp"	"whiteface2.bmp"	"NULL"	1	331	"fast"	NA	"white"	"WEAP"	"Gun"
"12"	"Scherer_2015_BG"	"BlackGun"	"2"	"F"	"5"	"Inconvenience"	"RightGun"	"small"	"5/8/2015"	"10:45:48"	"RunProc"	"66"	"WhiteBlack"	"whiteface4.bmp"	"BlackFace4.bmp"	"BlackFace3.bmp"	"BlackFace4.bmp"	"NULL"	"whiteface4.bmp"	"NULL"	1	248	"fast"	NA	"white"	"Blac"	"Other"
"12"	"Scherer_2015_BG"	"BlackGun"	"2"	"F"	"5"	"Inconvenience"	"RightGun"	"small"	"5/8/2015"	"10:45:48"	"RunProc"	"67"	"BlackGun"	"BlackFace2.bmp"	"WEAPON2dk.bmp"	"BlackFace2.bmp"	"BlackFace3.bmp"	"WEAPON2dk.bmp"	"NULL"	"NULL"	1	299	"fast"	NA	"Black"	"WEAP"	"Gun"
"12"	"Scherer_2015_BG"	"BlackGun"	"2"	"F"	"5"	"Inconvenience"	"RightGun"	"small"	"5/8/2015"	"10:45:48"	"RunProc"	"68"	"BlackGun"	"BlackFace3.bmp"	"WEAPON4dk.bmp"	"BlackFace3.bmp"	"BlackFace2.bmp"	"WEAPON4dk.bmp"	"NULL"	"NULL"	1	326	"fast"	NA	"Black"	"WEAP"	"Gun"
"12"	"Scherer_2015_BG"	"BlackGun"	"2"	"F"	"5"	"Inconvenience"	"RightGun"	"small"	"5/8/2015"	"10:45:48"	"RunProc"	"69"	"WhiteGun"	"whiteface3.bmp"	"WEAPON1dk.bmp"	"NULL"	"NULL"	"WEAPON1dk.bmp"	"whiteface3.bmp"	"NULL"	1	334	"fast"	NA	"white"	"WEAP"	"Gun"
"12"	"Scherer_2015_BG"	"BlackGun"	"2"	"F"	"5"	"Inconvenience"	"RightGun"	"small"	"5/8/2015"	"10:45:48"	"RunProc"	"70"	"WhiteBlack"	"whiteface1.bmp"	"BlackFace1.bmp"	"BlackFace4.bmp"	"BlackFace1.bmp"	"NULL"	"whiteface1.bmp"	"NULL"	1	300	"fast"	NA	"white"	"Blac"	"Other"
"12"	"Scherer_2015_BG"	"BlackGun"	"2"	"F"	"5"	"Inconvenience"	"RightGun"	"small"	"5/8/2015"	"10:45:48"	"RunProc"	"71"	"BlackBlack"	"BlackFace4.bmp"	"BlackFace2.bmp"	"BlackFace4.bmp"	"BlackFace2.bmp"	"NULL"	"NULL"	"NULL"	1	288	"fast"	NA	"Black"	"Blac"	"Other"
"12"	"Scherer_2015_BG"	"BlackGun"	"2"	"F"	"5"	"Inconvenience"	"RightGun"	"small"	"5/8/2015"	"10:45:48"	"RunProc"	"72"	"BlackBlack"	"BlackFace3.bmp"	"BlackFace1.bmp"	"BlackFace3.bmp"	"BlackFace1.bmp"	"NULL"	"NULL"	"NULL"	1	193	"fast"	NA	"Black"	"Blac"	"Other"
"12"	"Scherer_2015_BG"	"BlackGun"	"2"	"F"	"5"	"Inconvenience"	"RightGun"	"small"	"5/8/2015"	"10:45:48"	"RunProc"	"73"	"BlackBlack"	"BlackFace2.bmp"	"BlackFace4.bmp"	"BlackFace2.bmp"	"BlackFace4.bmp"	"NULL"	"NULL"	"NULL"	1	301	"fast"	NA	"Black"	"Blac"	"Other"
"12"	"Scherer_2015_BG"	"BlackGun"	"2"	"F"	"5"	"Inconvenience"	"RightGun"	"small"	"5/8/2015"	"10:45:48"	"RunProc"	"74"	"WhiteBlack"	"whiteface2.bmp"	"BlackFace3.bmp"	"BlackFace4.bmp"	"BlackFace3.bmp"	"NULL"	"whiteface2.bmp"	"NULL"	1	273	"fast"	NA	"white"	"Blac"	"Other"
"12"	"Scherer_2015_BG"	"BlackGun"	"2"	"F"	"5"	"Inconvenience"	"RightGun"	"small"	"5/8/2015"	"10:45:48"	"RunProc"	"75"	"WhiteGun"	"whiteface3.bmp"	"WEAPON3dk.bmp"	"NULL"	"NULL"	"WEAPON3dk.bmp"	"whiteface3.bmp"	"NULL"	1	323	"fast"	NA	"white"	"WEAP"	"Gun"
"12"	"Scherer_2015_BG"	"BlackGun"	"2"	"F"	"5"	"Inconvenience"	"RightGun"	"small"	"5/8/2015"	"10:45:48"	"RunProc"	"76"	"WhiteGun"	"whiteface1.bmp"	"WEAPON2dk.bmp"	"NULL"	"NULL"	"WEAPON2dk.bmp"	"whiteface1.bmp"	"NULL"	0	275	"fast"	NA	"white"	"WEAP"	"Gun"
"12"	"Scherer_2015_BG"	"BlackGun"	"2"	"F"	"5"	"Inconvenience"	"RightGun"	"small"	"5/8/2015"	"10:45:48"	"RunProc"	"77"	"WhiteBlack"	"whiteface4.bmp"	"BlackFace3.bmp"	"BlackFace1.bmp"	"BlackFace3.bmp"	"NULL"	"whiteface4.bmp"	"NULL"	1	336	"fast"	NA	"white"	"Blac"	"Other"
"12"	"Scherer_2015_BG"	"BlackGun"	"2"	"F"	"5"	"Inconvenience"	"RightGun"	"small"	"5/8/2015"	"10:45:48"	"RunProc"	"78"	"WhiteBlack"	"whiteface2.bmp"	"BlackFace4.bmp"	"BlackFace1.bmp"	"BlackFace4.bmp"	"NULL"	"whiteface2.bmp"	"NULL"	1	263	"fast"	NA	"white"	"Blac"	"Other"
"12"	"Scherer_2015_BG"	"BlackGun"	"2"	"F"	"5"	"Inconvenience"	"RightGun"	"small"	"5/8/2015"	"10:45:48"	"RunProc"	"79"	"BlackBlack"	"BlackFace1.bmp"	"BlackFace2.bmp"	"BlackFace1.bmp"	"BlackFace2.bmp"	"NULL"	"NULL"	"NULL"	1	261	"fast"	NA	"Black"	"Blac"	"Other"
"12"	"Scherer_2015_BG"	"BlackGun"	"2"	"F"	"5"	"Inconvenience"	"RightGun"	"small"	"5/8/2015"	"10:45:48"	"RunProc"	"80"	"BlackBlack"	"BlackFace2.bmp"	"BlackFace1.bmp"	"BlackFace2.bmp"	"BlackFace1.bmp"	"NULL"	"NULL"	"NULL"	1	263	"fast"	NA	"Black"	"Blac"	"Other"
"12"	"Scherer_2015_BG"	"BlackGun"	"2"	"F"	"5"	"Inconvenience"	"RightGun"	"small"	"5/8/2015"	"10:45:48"	"RunProc"	"81"	"BlackGun"	"BlackFace3.bmp"	"WEAPON1dk.bmp"	"BlackFace3.bmp"	"BlackFace4.bmp"	"WEAPON1dk.bmp"	"NULL"	"NULL"	0	266	"fast"	NA	"Black"	"WEAP"	"Gun"
"12"	"Scherer_2015_BG"	"BlackGun"	"2"	"F"	"5"	"Inconvenience"	"RightGun"	"small"	"5/8/2015"	"10:45:48"	"RunProc"	"82"	"WhiteGun"	"whiteface4.bmp"	"WEAPON2dk.bmp"	"NULL"	"NULL"	"WEAPON2dk.bmp"	"whiteface4.bmp"	"NULL"	1	321	"fast"	NA	"white"	"WEAP"	"Gun"
"12"	"Scherer_2015_BG"	"BlackGun"	"2"	"F"	"5"	"Inconvenience"	"RightGun"	"small"	"5/8/2015"	"10:45:48"	"RunProc"	"83"	"BlackGun"	"BlackFace4.bmp"	"WEAPON4dk.bmp"	"BlackFace4.bmp"	"BlackFace1.bmp"	"WEAPON4dk.bmp"	"NULL"	"NULL"	1	293	"fast"	NA	"Black"	"WEAP"	"Gun"
"12"	"Scherer_2015_BG"	"BlackGun"	"2"	"F"	"5"	"Inconvenience"	"RightGun"	"small"	"5/8/2015"	"10:45:48"	"RunProc"	"84"	"BlackGun"	"BlackFace4.bmp"	"WEAPON3dk.bmp"	"BlackFace4.bmp"	"BlackFace2.bmp"	"WEAPON3dk.bmp"	"NULL"	"NULL"	1	319	"fast"	NA	"Black"	"WEAP"	"Gun"
"12"	"Scherer_2015_BG"	"BlackGun"	"2"	"F"	"5"	"Inconvenience"	"RightGun"	"small"	"5/8/2015"	"10:45:48"	"RunProc"	"85"	"WhiteGun"	"whiteface3.bmp"	"WEAPON4dk.bmp"	"NULL"	"NULL"	"WEAPON4dk.bmp"	"whiteface3.bmp"	"NULL"	1	334	"fast"	NA	"white"	"WEAP"	"Gun"
"12"	"Scherer_2015_BG"	"BlackGun"	"2"	"F"	"5"	"Inconvenience"	"RightGun"	"small"	"5/8/2015"	"10:45:48"	"RunProc"	"86"	"WhiteGun"	"whiteface2.bmp"	"WEAPON1dk.bmp"	"NULL"	"NULL"	"WEAPON1dk.bmp"	"whiteface2.bmp"	"NULL"	1	305	"fast"	NA	"white"	"WEAP"	"Gun"
"12"	"Scherer_2015_BG"	"BlackGun"	"2"	"F"	"5"	"Inconvenience"	"RightGun"	"small"	"5/8/2015"	"10:45:48"	"RunProc"	"87"	"BlackGun"	"BlackFace2.bmp"	"WEAPON2dk.bmp"	"BlackFace2.bmp"	"BlackFace1.bmp"	"WEAPON2dk.bmp"	"NULL"	"NULL"	1	316	"fast"	NA	"Black"	"WEAP"	"Gun"
"12"	"Scherer_2015_BG"	"BlackGun"	"2"	"F"	"5"	"Inconvenience"	"RightGun"	"small"	"5/8/2015"	"10:45:48"	"RunProc"	"88"	"WhiteGun"	"whiteface1.bmp"	"WEAPON3dk.bmp"	"NULL"	"NULL"	"WEAPON3dk.bmp"	"whiteface1.bmp"	"NULL"	1	359	"fast"	NA	"white"	"WEAP"	"Gun"
"12"	"Scherer_2015_BG"	"BlackGun"	"2"	"F"	"5"	"Inconvenience"	"RightGun"	"small"	"5/8/2015"	"10:45:48"	"RunProc"	"89"	"WhiteBlack"	"whiteface2.bmp"	"BlackFace4.bmp"	"BlackFace1.bmp"	"BlackFace4.bmp"	"NULL"	"whiteface2.bmp"	"NULL"	1	337	"fast"	NA	"white"	"Blac"	"Other"
"12"	"Scherer_2015_BG"	"BlackGun"	"2"	"F"	"5"	"Inconvenience"	"RightGun"	"small"	"5/8/2015"	"10:45:48"	"RunProc"	"90"	"BlackGun"	"BlackFace1.bmp"	"WEAPON2dk.bmp"	"BlackFace1.bmp"	"BlackFace2.bmp"	"WEAPON2dk.bmp"	"NULL"	"NULL"	1	340	"fast"	NA	"Black"	"WEAP"	"Gun"
"12"	"Scherer_2015_BG"	"BlackGun"	"2"	"F"	"5"	"Inconvenience"	"RightGun"	"small"	"5/8/2015"	"10:45:48"	"RunProc"	"91"	"WhiteBlack"	"whiteface3.bmp"	"BlackFace1.bmp"	"BlackFace3.bmp"	"BlackFace1.bmp"	"NULL"	"whiteface3.bmp"	"NULL"	1	337	"fast"	NA	"white"	"Blac"	"Other"
"12"	"Scherer_2015_BG"	"BlackGun"	"2"	"F"	"5"	"Inconvenience"	"RightGun"	"small"	"5/8/2015"	"10:45:48"	"RunProc"	"92"	"WhiteGun"	"whiteface4.bmp"	"WEAPON1dk.bmp"	"NULL"	"NULL"	"WEAPON1dk.bmp"	"whiteface4.bmp"	"NULL"	1	457	"fast"	NA	"white"	"WEAP"	"Gun"
"12"	"Scherer_2015_BG"	"BlackGun"	"2"	"F"	"5"	"Inconvenience"	"RightGun"	"small"	"5/8/2015"	"10:45:48"	"RunProc"	"93"	"BlackGun"	"BlackFace1.bmp"	"WEAPON4dk.bmp"	"BlackFace1.bmp"	"BlackFace3.bmp"	"WEAPON4dk.bmp"	"NULL"	"NULL"	1	360	"fast"	NA	"Black"	"WEAP"	"Gun"
"12"	"Scherer_2015_BG"	"BlackGun"	"2"	"F"	"5"	"Inconvenience"	"RightGun"	"small"	"5/8/2015"	"10:45:48"	"RunProc"	"94"	"WhiteBlack"	"whiteface1.bmp"	"BlackFace2.bmp"	"BlackFace3.bmp"	"BlackFace2.bmp"	"NULL"	"whiteface1.bmp"	"NULL"	1	366	"fast"	NA	"white"	"Blac"	"Other"
"12"	"Scherer_2015_BG"	"BlackGun"	"2"	"F"	"5"	"Inconvenience"	"RightGun"	"small"	"5/8/2015"	"10:45:48"	"RunProc"	"95"	"WhiteBlack"	"whiteface2.bmp"	"BlackFace4.bmp"	"BlackFace2.bmp"	"BlackFace4.bmp"	"NULL"	"whiteface2.bmp"	"NULL"	1	315	"fast"	NA	"white"	"Blac"	"Other"
"12"	"Scherer_2015_BG"	"BlackGun"	"2"	"F"	"5"	"Inconvenience"	"RightGun"	"small"	"5/8/2015"	"10:45:48"	"RunProc"	"96"	"WhiteGun"	"whiteface4.bmp"	"WEAPON3dk.bmp"	"NULL"	"NULL"	"WEAPON3dk.bmp"	"whiteface4.bmp"	"NULL"	1	346	"fast"	NA	"white"	"WEAP"	"Gun"
"12"	"Scherer_2015_BG"	"BlackGun"	"2"	"F"	"5"	"Inconvenience"	"RightGun"	"small"	"5/8/2015"	"10:45:48"	"RunProc"	"97"	"BlackGun"	"BlackFace4.bmp"	"WEAPON3dk.bmp"	"BlackFace4.bmp"	"BlackFace3.bmp"	"WEAPON3dk.bmp"	"NULL"	"NULL"	1	367	"fast"	NA	"Black"	"WEAP"	"Gun"
"12"	"Scherer_2015_BG"	"BlackGun"	"2"	"F"	"5"	"Inconvenience"	"RightGun"	"small"	"5/8/2015"	"10:45:48"	"RunProc"	"98"	"BlackGun"	"BlackFace2.bmp"	"WEAPON4dk.bmp"	"BlackFace2.bmp"	"BlackFace3.bmp"	"WEAPON4dk.bmp"	"NULL"	"NULL"	0	313	"fast"	NA	"Black"	"WEAP"	"Gun"
"12"	"Scherer_2015_BG"	"BlackGun"	"2"	"F"	"5"	"Inconvenience"	"RightGun"	"small"	"5/8/2015"	"10:45:48"	"RunProc"	"99"	"BlackGun"	"BlackFace4.bmp"	"WEAPON2dk.bmp"	"BlackFace4.bmp"	"BlackFace1.bmp"	"WEAPON2dk.bmp"	"NULL"	"NULL"	1	363	"fast"	NA	"Black"	"WEAP"	"Gun"
"12"	"Scherer_2015_BG"	"BlackGun"	"2"	"F"	"5"	"Inconvenience"	"RightGun"	"small"	"5/8/2015"	"10:45:48"	"RunProc"	"100"	"BlackGun"	"BlackFace1.bmp"	"WEAPON1dk.bmp"	"BlackFace1.bmp"	"BlackFace2.bmp"	"WEAPON1dk.bmp"	"NULL"	"NULL"	1	323	"fast"	NA	"Black"	"WEAP"	"Gun"
"12"	"Scherer_2015_BG"	"BlackGun"	"2"	"F"	"5"	"Inconvenience"	"RightGun"	"small"	"5/8/2015"	"10:45:48"	"RunProc"	"101"	"BlackBlack"	"BlackFace4.bmp"	"BlackFace2.bmp"	"BlackFace4.bmp"	"BlackFace2.bmp"	"NULL"	"NULL"	"NULL"	1	315	"fast"	NA	"Black"	"Blac"	"Other"
"12"	"Scherer_2015_BG"	"BlackGun"	"2"	"F"	"5"	"Inconvenience"	"RightGun"	"small"	"5/8/2015"	"10:45:48"	"RunProc"	"102"	"BlackBlack"	"BlackFace2.bmp"	"BlackFace1.bmp"	"BlackFace2.bmp"	"BlackFace1.bmp"	"NULL"	"NULL"	"NULL"	1	302	"fast"	NA	"Black"	"Blac"	"Other"
"12"	"Scherer_2015_BG"	"BlackGun"	"2"	"F"	"5"	"Inconvenience"	"RightGun"	"small"	"5/8/2015"	"10:45:48"	"RunProc"	"103"	"BlackGun"	"BlackFace1.bmp"	"WEAPON1dk.bmp"	"BlackFace1.bmp"	"BlackFace4.bmp"	"WEAPON1dk.bmp"	"NULL"	"NULL"	1	315	"fast"	NA	"Black"	"WEAP"	"Gun"
"12"	"Scherer_2015_BG"	"BlackGun"	"2"	"F"	"5"	"Inconvenience"	"RightGun"	"small"	"5/8/2015"	"10:45:48"	"RunProc"	"104"	"WhiteBlack"	"whiteface3.bmp"	"BlackFace3.bmp"	"BlackFace4.bmp"	"BlackFace3.bmp"	"NULL"	"whiteface3.bmp"	"NULL"	1	303	"fast"	NA	"white"	"Blac"	"Other"
"12"	"Scherer_2015_BG"	"BlackGun"	"2"	"F"	"5"	"Inconvenience"	"RightGun"	"small"	"5/8/2015"	"10:45:48"	"RunProc"	"105"	"BlackGun"	"BlackFace1.bmp"	"WEAPON2dk.bmp"	"BlackFace1.bmp"	"BlackFace3.bmp"	"WEAPON2dk.bmp"	"NULL"	"NULL"	1	279	"fast"	NA	"Black"	"WEAP"	"Gun"
"12"	"Scherer_2015_BG"	"BlackGun"	"2"	"F"	"5"	"Inconvenience"	"RightGun"	"small"	"5/8/2015"	"10:45:48"	"RunProc"	"106"	"BlackBlack"	"BlackFace2.bmp"	"BlackFace3.bmp"	"BlackFace2.bmp"	"BlackFace3.bmp"	"NULL"	"NULL"	"NULL"	1	303	"fast"	NA	"Black"	"Blac"	"Other"
"12"	"Scherer_2015_BG"	"BlackGun"	"2"	"F"	"5"	"Inconvenience"	"RightGun"	"small"	"5/8/2015"	"10:45:48"	"RunProc"	"107"	"WhiteGun"	"whiteface1.bmp"	"WEAPON3dk.bmp"	"NULL"	"NULL"	"WEAPON3dk.bmp"	"whiteface1.bmp"	"NULL"	1	358	"fast"	NA	"white"	"WEAP"	"Gun"
"12"	"Scherer_2015_BG"	"BlackGun"	"2"	"F"	"5"	"Inconvenience"	"RightGun"	"small"	"5/8/2015"	"10:45:48"	"RunProc"	"108"	"WhiteGun"	"whiteface4.bmp"	"WEAPON4dk.bmp"	"NULL"	"NULL"	"WEAPON4dk.bmp"	"whiteface4.bmp"	"NULL"	1	363	"fast"	NA	"white"	"WEAP"	"Gun"
"12"	"Scherer_2015_BG"	"BlackGun"	"2"	"F"	"5"	"Inconvenience"	"RightGun"	"small"	"5/8/2015"	"10:45:48"	"RunProc"	"109"	"WhiteGun"	"whiteface1.bmp"	"WEAPON1dk.bmp"	"NULL"	"NULL"	"WEAPON1dk.bmp"	"whiteface1.bmp"	"NULL"	1	281	"fast"	NA	"white"	"WEAP"	"Gun"
"12"	"Scherer_2015_BG"	"BlackGun"	"2"	"F"	"5"	"Inconvenience"	"RightGun"	"small"	"5/8/2015"	"10:45:48"	"RunProc"	"110"	"BlackBlack"	"BlackFace3.bmp"	"BlackFace2.bmp"	"BlackFace3.bmp"	"BlackFace2.bmp"	"NULL"	"NULL"	"NULL"	1	268	"fast"	NA	"Black"	"Blac"	"Other"
"12"	"Scherer_2015_BG"	"BlackGun"	"2"	"F"	"5"	"Inconvenience"	"RightGun"	"small"	"5/8/2015"	"10:45:48"	"RunProc"	"111"	"WhiteBlack"	"whiteface2.bmp"	"BlackFace1.bmp"	"BlackFace3.bmp"	"BlackFace1.bmp"	"NULL"	"whiteface2.bmp"	"NULL"	1	311	"fast"	NA	"white"	"Blac"	"Other"
"12"	"Scherer_2015_BG"	"BlackGun"	"2"	"F"	"5"	"Inconvenience"	"RightGun"	"small"	"5/8/2015"	"10:45:48"	"RunProc"	"112"	"BlackBlack"	"BlackFace3.bmp"	"BlackFace4.bmp"	"BlackFace3.bmp"	"BlackFace4.bmp"	"NULL"	"NULL"	"NULL"	1	358	"fast"	NA	"Black"	"Blac"	"Other"
"12"	"Scherer_2015_BG"	"BlackGun"	"2"	"F"	"5"	"Inconvenience"	"RightGun"	"small"	"5/8/2015"	"10:45:48"	"RunProc"	"113"	"WhiteBlack"	"whiteface3.bmp"	"BlackFace4.bmp"	"BlackFace2.bmp"	"BlackFace4.bmp"	"NULL"	"whiteface3.bmp"	"NULL"	1	275	"fast"	NA	"white"	"Blac"	"Other"
"12"	"Scherer_2015_BG"	"BlackGun"	"2"	"F"	"5"	"Inconvenience"	"RightGun"	"small"	"5/8/2015"	"10:45:48"	"RunProc"	"114"	"BlackBlack"	"BlackFace1.bmp"	"BlackFace4.bmp"	"BlackFace1.bmp"	"BlackFace4.bmp"	"NULL"	"NULL"	"NULL"	1	292	"fast"	NA	"Black"	"Blac"	"Other"
"12"	"Scherer_2015_BG"	"BlackGun"	"2"	"F"	"5"	"Inconvenience"	"RightGun"	"small"	"5/8/2015"	"10:45:48"	"RunProc"	"115"	"BlackBlack"	"BlackFace4.bmp"	"BlackFace2.bmp"	"BlackFace4.bmp"	"BlackFace2.bmp"	"NULL"	"NULL"	"NULL"	1	258	"fast"	NA	"Black"	"Blac"	"Other"
"12"	"Scherer_2015_BG"	"BlackGun"	"2"	"F"	"5"	"Inconvenience"	"RightGun"	"small"	"5/8/2015"	"10:45:48"	"RunProc"	"116"	"BlackBlack"	"BlackFace1.bmp"	"BlackFace3.bmp"	"BlackFace1.bmp"	"BlackFace3.bmp"	"NULL"	"NULL"	"NULL"	1	221	"fast"	NA	"Black"	"Blac"	"Other"
"12"	"Scherer_2015_BG"	"BlackGun"	"2"	"F"	"5"	"Inconvenience"	"RightGun"	"small"	"5/8/2015"	"10:45:48"	"RunProc"	"117"	"BlackGun"	"BlackFace3.bmp"	"WEAPON4dk.bmp"	"BlackFace3.bmp"	"BlackFace2.bmp"	"WEAPON4dk.bmp"	"NULL"	"NULL"	1	350	"fast"	NA	"Black"	"WEAP"	"Gun"
"12"	"Scherer_2015_BG"	"BlackGun"	"2"	"F"	"5"	"Inconvenience"	"RightGun"	"small"	"5/8/2015"	"10:45:48"	"RunProc"	"118"	"WhiteGun"	"whiteface2.bmp"	"WEAPON3dk.bmp"	"NULL"	"NULL"	"WEAPON3dk.bmp"	"whiteface2.bmp"	"NULL"	1	340	"fast"	NA	"white"	"WEAP"	"Gun"
"12"	"Scherer_2015_BG"	"BlackGun"	"2"	"F"	"5"	"Inconvenience"	"RightGun"	"small"	"5/8/2015"	"10:45:48"	"RunProc"	"119"	"WhiteGun"	"whiteface1.bmp"	"WEAPON2dk.bmp"	"NULL"	"NULL"	"WEAPON2dk.bmp"	"whiteface1.bmp"	"NULL"	0	333	"fast"	NA	"white"	"WEAP"	"Gun"
"12"	"Scherer_2015_BG"	"BlackGun"	"2"	"F"	"5"	"Inconvenience"	"RightGun"	"small"	"5/8/2015"	"10:45:48"	"RunProc"	"120"	"WhiteBlack"	"whiteface4.bmp"	"BlackFace4.bmp"	"BlackFace3.bmp"	"BlackFace4.bmp"	"NULL"	"whiteface4.bmp"	"NULL"	0	436	"fast"	NA	"white"	"Blac"	"Other"
"12"	"Scherer_2015_BG"	"BlackGun"	"2"	"F"	"5"	"Inconvenience"	"RightGun"	"small"	"5/8/2015"	"10:45:48"	"RunProc"	"121"	"WhiteBlack"	"whiteface3.bmp"	"BlackFace2.bmp"	"BlackFace1.bmp"	"BlackFace2.bmp"	"NULL"	"whiteface3.bmp"	"NULL"	1	342	"fast"	NA	"white"	"Blac"	"Other"
"14"	"Scherer_2015_BG"	"BlackGun"	"1"	"M"	"1"	"Convenience"	"RightGun"	"small"	"5/8/2015"	"11:01:52"	"RunProc"	"1"	"WhiteBlack"	"whiteface4.bmp"	"BlackFace2.bmp"	"BlackFace1.bmp"	"BlackFace2.bmp"	"NULL"	"whiteface4.bmp"	"NULL"	1	297	"fast"	NA	"white"	"Blac"	"Other"
"14"	"Scherer_2015_BG"	"BlackGun"	"1"	"M"	"1"	"Convenience"	"RightGun"	"small"	"5/8/2015"	"11:01:52"	"RunProc"	"2"	"WhiteGun"	"whiteface3.bmp"	"WEAPON1dk.bmp"	"NULL"	"NULL"	"WEAPON1dk.bmp"	"whiteface3.bmp"	"NULL"	0	232	"fast"	NA	"white"	"WEAP"	"Gun"
"14"	"Scherer_2015_BG"	"BlackGun"	"1"	"M"	"1"	"Convenience"	"RightGun"	"small"	"5/8/2015"	"11:01:52"	"RunProc"	"3"	"WhiteGun"	"whiteface2.bmp"	"WEAPON2dk.bmp"	"NULL"	"NULL"	"WEAPON2dk.bmp"	"whiteface2.bmp"	"NULL"	0	217	"fast"	NA	"white"	"WEAP"	"Gun"
"14"	"Scherer_2015_BG"	"BlackGun"	"1"	"M"	"1"	"Convenience"	"RightGun"	"small"	"5/8/2015"	"11:01:52"	"RunProc"	"4"	"WhiteGun"	"whiteface1.bmp"	"WEAPON4dk.bmp"	"NULL"	"NULL"	"WEAPON4dk.bmp"	"whiteface1.bmp"	"NULL"	0	233	"fast"	NA	"white"	"WEAP"	"Gun"
"14"	"Scherer_2015_BG"	"BlackGun"	"1"	"M"	"1"	"Convenience"	"RightGun"	"small"	"5/8/2015"	"11:01:52"	"RunProc"	"5"	"BlackGun"	"BlackFace3.bmp"	"WEAPON3dk.bmp"	"BlackFace3.bmp"	"BlackFace4.bmp"	"WEAPON3dk.bmp"	"NULL"	"NULL"	0	165	"fast"	NA	"Black"	"WEAP"	"Gun"
"14"	"Scherer_2015_BG"	"BlackGun"	"1"	"M"	"1"	"Convenience"	"RightGun"	"small"	"5/8/2015"	"11:01:52"	"RunProc"	"6"	"BlackBlack"	"BlackFace1.bmp"	"BlackFace4.bmp"	"BlackFace1.bmp"	"BlackFace4.bmp"	"NULL"	"NULL"	"NULL"	1	314	"fast"	NA	"Black"	"Blac"	"Other"
"14"	"Scherer_2015_BG"	"BlackGun"	"1"	"M"	"1"	"Convenience"	"RightGun"	"small"	"5/8/2015"	"11:01:52"	"RunProc"	"7"	"BlackBlack"	"BlackFace4.bmp"	"BlackFace2.bmp"	"BlackFace4.bmp"	"BlackFace2.bmp"	"NULL"	"NULL"	"NULL"	1	148	"fast"	NA	"Black"	"Blac"	"Other"
"14"	"Scherer_2015_BG"	"BlackGun"	"1"	"M"	"1"	"Convenience"	"RightGun"	"small"	"5/8/2015"	"11:01:52"	"RunProc"	"8"	"BlackBlack"	"BlackFace3.bmp"	"BlackFace1.bmp"	"BlackFace3.bmp"	"BlackFace1.bmp"	"NULL"	"NULL"	"NULL"	1	184	"fast"	NA	"Black"	"Blac"	"Other"
"14"	"Scherer_2015_BG"	"BlackGun"	"1"	"M"	"1"	"Convenience"	"RightGun"	"small"	"5/8/2015"	"11:01:52"	"RunProc"	"9"	"WhiteGun"	"whiteface2.bmp"	"WEAPON2dk.bmp"	"NULL"	"NULL"	"WEAPON2dk.bmp"	"whiteface2.bmp"	"NULL"	1	192	"fast"	NA	"white"	"WEAP"	"Gun"
"14"	"Scherer_2015_BG"	"BlackGun"	"1"	"M"	"1"	"Convenience"	"RightGun"	"small"	"5/8/2015"	"11:01:52"	"RunProc"	"10"	"BlackGun"	"BlackFace2.bmp"	"WEAPON1dk.bmp"	"BlackFace2.bmp"	"BlackFace1.bmp"	"WEAPON1dk.bmp"	"NULL"	"NULL"	1	227	"fast"	NA	"Black"	"WEAP"	"Gun"
"14"	"Scherer_2015_BG"	"BlackGun"	"1"	"M"	"1"	"Convenience"	"RightGun"	"small"	"5/8/2015"	"11:01:52"	"RunProc"	"11"	"BlackBlack"	"BlackFace2.bmp"	"BlackFace4.bmp"	"BlackFace2.bmp"	"BlackFace4.bmp"	"NULL"	"NULL"	"NULL"	1	241	"fast"	NA	"Black"	"Blac"	"Other"
"14"	"Scherer_2015_BG"	"BlackGun"	"1"	"M"	"1"	"Convenience"	"RightGun"	"small"	"5/8/2015"	"11:01:52"	"RunProc"	"12"	"BlackGun"	"BlackFace1.bmp"	"WEAPON4dk.bmp"	"BlackFace1.bmp"	"BlackFace3.bmp"	"WEAPON4dk.bmp"	"NULL"	"NULL"	0	169	"fast"	NA	"Black"	"WEAP"	"Gun"
"14"	"Scherer_2015_BG"	"BlackGun"	"1"	"M"	"1"	"Convenience"	"RightGun"	"small"	"5/8/2015"	"11:01:52"	"RunProc"	"13"	"WhiteGun"	"whiteface1.bmp"	"WEAPON3dk.bmp"	"NULL"	"NULL"	"WEAPON3dk.bmp"	"whiteface1.bmp"	"NULL"	0	224	"fast"	NA	"white"	"WEAP"	"Gun"
"14"	"Scherer_2015_BG"	"BlackGun"	"1"	"M"	"1"	"Convenience"	"RightGun"	"small"	"5/8/2015"	"11:01:52"	"RunProc"	"14"	"BlackBlack"	"BlackFace4.bmp"	"BlackFace1.bmp"	"BlackFace4.bmp"	"BlackFace1.bmp"	"NULL"	"NULL"	"NULL"	1	254	"fast"	NA	"Black"	"Blac"	"Other"
"14"	"Scherer_2015_BG"	"BlackGun"	"1"	"M"	"1"	"Convenience"	"RightGun"	"small"	"5/8/2015"	"11:01:52"	"RunProc"	"15"	"WhiteBlack"	"whiteface3.bmp"	"BlackFace2.bmp"	"BlackFace3.bmp"	"BlackFace2.bmp"	"NULL"	"whiteface3.bmp"	"NULL"	0	320	"fast"	NA	"white"	"Blac"	"Other"
"14"	"Scherer_2015_BG"	"BlackGun"	"1"	"M"	"1"	"Convenience"	"RightGun"	"small"	"5/8/2015"	"11:01:52"	"RunProc"	"16"	"WhiteBlack"	"whiteface4.bmp"	"BlackFace3.bmp"	"BlackFace2.bmp"	"BlackFace3.bmp"	"NULL"	"whiteface4.bmp"	"NULL"	1	153	"fast"	NA	"white"	"Blac"	"Other"
"14"	"Scherer_2015_BG"	"BlackGun"	"1"	"M"	"1"	"Convenience"	"RightGun"	"small"	"5/8/2015"	"11:01:52"	"RunProc"	"17"	"BlackBlack"	"BlackFace4.bmp"	"BlackFace3.bmp"	"BlackFace4.bmp"	"BlackFace3.bmp"	"NULL"	"NULL"	"NULL"	1	248	"fast"	NA	"Black"	"Blac"	"Other"
"14"	"Scherer_2015_BG"	"BlackGun"	"1"	"M"	"1"	"Convenience"	"RightGun"	"small"	"5/8/2015"	"11:01:52"	"RunProc"	"18"	"WhiteGun"	"whiteface1.bmp"	"WEAPON4dk.bmp"	"NULL"	"NULL"	"WEAPON4dk.bmp"	"whiteface1.bmp"	"NULL"	0	187	"fast"	NA	"white"	"WEAP"	"Gun"
"14"	"Scherer_2015_BG"	"BlackGun"	"1"	"M"	"1"	"Convenience"	"RightGun"	"small"	"5/8/2015"	"11:01:52"	"RunProc"	"19"	"BlackGun"	"BlackFace2.bmp"	"WEAPON1dk.bmp"	"BlackFace2.bmp"	"BlackFace4.bmp"	"WEAPON1dk.bmp"	"NULL"	"NULL"	0	192	"fast"	NA	"Black"	"WEAP"	"Gun"
"14"	"Scherer_2015_BG"	"BlackGun"	"1"	"M"	"1"	"Convenience"	"RightGun"	"small"	"5/8/2015"	"11:01:52"	"RunProc"	"20"	"BlackGun"	"BlackFace1.bmp"	"WEAPON3dk.bmp"	"BlackFace1.bmp"	"BlackFace4.bmp"	"WEAPON3dk.bmp"	"NULL"	"NULL"	0	204	"fast"	NA	"Black"	"WEAP"	"Gun"
"14"	"Scherer_2015_BG"	"BlackGun"	"1"	"M"	"1"	"Convenience"	"RightGun"	"small"	"5/8/2015"	"11:01:52"	"RunProc"	"21"	"WhiteGun"	"whiteface2.bmp"	"WEAPON2dk.bmp"	"NULL"	"NULL"	"WEAPON2dk.bmp"	"whiteface2.bmp"	"NULL"	0	199	"fast"	NA	"white"	"WEAP"	"Gun"
"14"	"Scherer_2015_BG"	"BlackGun"	"1"	"M"	"1"	"Convenience"	"RightGun"	"small"	"5/8/2015"	"11:01:52"	"RunProc"	"22"	"WhiteGun"	"whiteface4.bmp"	"WEAPON3dk.bmp"	"NULL"	"NULL"	"WEAPON3dk.bmp"	"whiteface4.bmp"	"NULL"	0	220	"fast"	NA	"white"	"WEAP"	"Gun"
"14"	"Scherer_2015_BG"	"BlackGun"	"1"	"M"	"1"	"Convenience"	"RightGun"	"small"	"5/8/2015"	"11:01:52"	"RunProc"	"23"	"BlackBlack"	"BlackFace3.bmp"	"BlackFace1.bmp"	"BlackFace3.bmp"	"BlackFace1.bmp"	"NULL"	"NULL"	"NULL"	0	141	"fast"	NA	"Black"	"Blac"	"Other"
"14"	"Scherer_2015_BG"	"BlackGun"	"1"	"M"	"1"	"Convenience"	"RightGun"	"small"	"5/8/2015"	"11:01:52"	"RunProc"	"24"	"BlackGun"	"BlackFace3.bmp"	"WEAPON2dk.bmp"	"BlackFace3.bmp"	"BlackFace4.bmp"	"WEAPON2dk.bmp"	"NULL"	"NULL"	0	204	"fast"	NA	"Black"	"WEAP"	"Gun"
"14"	"Scherer_2015_BG"	"BlackGun"	"1"	"M"	"1"	"Convenience"	"RightGun"	"small"	"5/8/2015"	"11:01:52"	"RunProc"	"25"	"WhiteGun"	"whiteface3.bmp"	"WEAPON1dk.bmp"	"NULL"	"NULL"	"WEAPON1dk.bmp"	"whiteface3.bmp"	"NULL"	0	248	"fast"	NA	"white"	"WEAP"	"Gun"
"14"	"Scherer_2015_BG"	"BlackGun"	"1"	"M"	"1"	"Convenience"	"RightGun"	"small"	"5/8/2015"	"11:01:52"	"RunProc"	"26"	"WhiteBlack"	"whiteface2.bmp"	"BlackFace1.bmp"	"BlackFace4.bmp"	"BlackFace1.bmp"	"NULL"	"whiteface2.bmp"	"NULL"	1	228	"fast"	NA	"white"	"Blac"	"Other"
"14"	"Scherer_2015_BG"	"BlackGun"	"1"	"M"	"1"	"Convenience"	"RightGun"	"small"	"5/8/2015"	"11:01:52"	"RunProc"	"27"	"BlackGun"	"BlackFace2.bmp"	"WEAPON4dk.bmp"	"BlackFace2.bmp"	"BlackFace3.bmp"	"WEAPON4dk.bmp"	"NULL"	"NULL"	0	222	"fast"	NA	"Black"	"WEAP"	"Gun"
"14"	"Scherer_2015_BG"	"BlackGun"	"1"	"M"	"1"	"Convenience"	"RightGun"	"small"	"5/8/2015"	"11:01:52"	"RunProc"	"28"	"WhiteGun"	"whiteface1.bmp"	"WEAPON1dk.bmp"	"NULL"	"NULL"	"WEAPON1dk.bmp"	"whiteface1.bmp"	"NULL"	0	183	"fast"	NA	"white"	"WEAP"	"Gun"
"14"	"Scherer_2015_BG"	"BlackGun"	"1"	"M"	"1"	"Convenience"	"RightGun"	"small"	"5/8/2015"	"11:01:52"	"RunProc"	"29"	"WhiteBlack"	"whiteface4.bmp"	"BlackFace3.bmp"	"BlackFace1.bmp"	"BlackFace3.bmp"	"NULL"	"whiteface4.bmp"	"NULL"	1	237	"fast"	NA	"white"	"Blac"	"Other"
"14"	"Scherer_2015_BG"	"BlackGun"	"1"	"M"	"1"	"Convenience"	"RightGun"	"small"	"5/8/2015"	"11:01:52"	"RunProc"	"30"	"WhiteBlack"	"whiteface3.bmp"	"BlackFace1.bmp"	"BlackFace2.bmp"	"BlackFace1.bmp"	"NULL"	"whiteface3.bmp"	"NULL"	1	295	"fast"	NA	"white"	"Blac"	"Other"
"14"	"Scherer_2015_BG"	"BlackGun"	"1"	"M"	"1"	"Convenience"	"RightGun"	"small"	"5/8/2015"	"11:01:52"	"RunProc"	"31"	"WhiteBlack"	"whiteface3.bmp"	"BlackFace2.bmp"	"BlackFace1.bmp"	"BlackFace2.bmp"	"NULL"	"whiteface3.bmp"	"NULL"	1	228	"fast"	NA	"white"	"Blac"	"Other"
"14"	"Scherer_2015_BG"	"BlackGun"	"1"	"M"	"1"	"Convenience"	"RightGun"	"small"	"5/8/2015"	"11:01:52"	"RunProc"	"32"	"BlackBlack"	"BlackFace4.bmp"	"BlackFace3.bmp"	"BlackFace4.bmp"	"BlackFace3.bmp"	"NULL"	"NULL"	"NULL"	1	224	"fast"	NA	"Black"	"Blac"	"Other"
"14"	"Scherer_2015_BG"	"BlackGun"	"1"	"M"	"1"	"Convenience"	"RightGun"	"small"	"5/8/2015"	"11:01:52"	"RunProc"	"33"	"BlackBlack"	"BlackFace4.bmp"	"BlackFace2.bmp"	"BlackFace4.bmp"	"BlackFace2.bmp"	"NULL"	"NULL"	"NULL"	1	203	"fast"	NA	"Black"	"Blac"	"Other"
"14"	"Scherer_2015_BG"	"BlackGun"	"1"	"M"	"1"	"Convenience"	"RightGun"	"small"	"5/8/2015"	"11:01:52"	"RunProc"	"34"	"WhiteBlack"	"whiteface2.bmp"	"BlackFace2.bmp"	"BlackFace3.bmp"	"BlackFace2.bmp"	"NULL"	"whiteface2.bmp"	"NULL"	1	218	"fast"	NA	"white"	"Blac"	"Other"
"14"	"Scherer_2015_BG"	"BlackGun"	"1"	"M"	"1"	"Convenience"	"RightGun"	"small"	"5/8/2015"	"11:01:52"	"RunProc"	"35"	"WhiteGun"	"whiteface1.bmp"	"WEAPON2dk.bmp"	"NULL"	"NULL"	"WEAPON2dk.bmp"	"whiteface1.bmp"	"NULL"	0	116	"fast"	NA	"white"	"WEAP"	"Gun"
"14"	"Scherer_2015_BG"	"BlackGun"	"1"	"M"	"1"	"Convenience"	"RightGun"	"small"	"5/8/2015"	"11:01:52"	"RunProc"	"36"	"BlackBlack"	"BlackFace2.bmp"	"BlackFace1.bmp"	"BlackFace2.bmp"	"BlackFace1.bmp"	"NULL"	"NULL"	"NULL"	1	298	"fast"	NA	"Black"	"Blac"	"Other"
"14"	"Scherer_2015_BG"	"BlackGun"	"1"	"M"	"1"	"Convenience"	"RightGun"	"small"	"5/8/2015"	"11:01:52"	"RunProc"	"37"	"WhiteBlack"	"whiteface4.bmp"	"BlackFace1.bmp"	"BlackFace3.bmp"	"BlackFace1.bmp"	"NULL"	"whiteface4.bmp"	"NULL"	1	208	"fast"	NA	"white"	"Blac"	"Other"
"14"	"Scherer_2015_BG"	"BlackGun"	"1"	"M"	"1"	"Convenience"	"RightGun"	"small"	"5/8/2015"	"11:01:52"	"RunProc"	"38"	"WhiteGun"	"whiteface4.bmp"	"WEAPON3dk.bmp"	"NULL"	"NULL"	"WEAPON3dk.bmp"	"whiteface4.bmp"	"NULL"	0	227	"fast"	NA	"white"	"WEAP"	"Gun"
"14"	"Scherer_2015_BG"	"BlackGun"	"1"	"M"	"1"	"Convenience"	"RightGun"	"small"	"5/8/2015"	"11:01:52"	"RunProc"	"39"	"BlackGun"	"BlackFace4.bmp"	"WEAPON4dk.bmp"	"BlackFace4.bmp"	"BlackFace1.bmp"	"WEAPON4dk.bmp"	"NULL"	"NULL"	0	215	"fast"	NA	"Black"	"WEAP"	"Gun"
"14"	"Scherer_2015_BG"	"BlackGun"	"1"	"M"	"1"	"Convenience"	"RightGun"	"small"	"5/8/2015"	"11:01:52"	"RunProc"	"40"	"WhiteBlack"	"whiteface2.bmp"	"BlackFace4.bmp"	"BlackFace3.bmp"	"BlackFace4.bmp"	"NULL"	"whiteface2.bmp"	"NULL"	0	184	"fast"	NA	"white"	"Blac"	"Other"
"14"	"Scherer_2015_BG"	"BlackGun"	"1"	"M"	"1"	"Convenience"	"RightGun"	"small"	"5/8/2015"	"11:01:52"	"RunProc"	"41"	"BlackBlack"	"BlackFace1.bmp"	"BlackFace4.bmp"	"BlackFace1.bmp"	"BlackFace4.bmp"	"NULL"	"NULL"	"NULL"	1	180	"fast"	NA	"Black"	"Blac"	"Other"
"14"	"Scherer_2015_BG"	"BlackGun"	"1"	"M"	"1"	"Convenience"	"RightGun"	"small"	"5/8/2015"	"11:01:52"	"RunProc"	"42"	"BlackGun"	"BlackFace2.bmp"	"WEAPON3dk.bmp"	"BlackFace2.bmp"	"BlackFace4.bmp"	"WEAPON3dk.bmp"	"NULL"	"NULL"	0	137	"fast"	NA	"Black"	"WEAP"	"Gun"
"14"	"Scherer_2015_BG"	"BlackGun"	"1"	"M"	"1"	"Convenience"	"RightGun"	"small"	"5/8/2015"	"11:01:52"	"RunProc"	"43"	"BlackGun"	"BlackFace1.bmp"	"WEAPON1dk.bmp"	"BlackFace1.bmp"	"BlackFace2.bmp"	"WEAPON1dk.bmp"	"NULL"	"NULL"	0	233	"fast"	NA	"Black"	"WEAP"	"Gun"
"14"	"Scherer_2015_BG"	"BlackGun"	"1"	"M"	"1"	"Convenience"	"RightGun"	"small"	"5/8/2015"	"11:01:52"	"RunProc"	"44"	"BlackBlack"	"BlackFace4.bmp"	"BlackFace2.bmp"	"BlackFace4.bmp"	"BlackFace2.bmp"	"NULL"	"NULL"	"NULL"	1	275	"fast"	NA	"Black"	"Blac"	"Other"
"14"	"Scherer_2015_BG"	"BlackGun"	"1"	"M"	"1"	"Convenience"	"RightGun"	"small"	"5/8/2015"	"11:01:52"	"RunProc"	"45"	"WhiteGun"	"whiteface1.bmp"	"WEAPON4dk.bmp"	"NULL"	"NULL"	"WEAPON4dk.bmp"	"whiteface1.bmp"	"NULL"	0	178	"fast"	NA	"white"	"WEAP"	"Gun"
"14"	"Scherer_2015_BG"	"BlackGun"	"1"	"M"	"1"	"Convenience"	"RightGun"	"small"	"5/8/2015"	"11:01:52"	"RunProc"	"46"	"BlackGun"	"BlackFace4.bmp"	"WEAPON2dk.bmp"	"BlackFace4.bmp"	"BlackFace3.bmp"	"WEAPON2dk.bmp"	"NULL"	"NULL"	0	174	"fast"	NA	"Black"	"WEAP"	"Gun"
"14"	"Scherer_2015_BG"	"BlackGun"	"1"	"M"	"1"	"Convenience"	"RightGun"	"small"	"5/8/2015"	"11:01:52"	"RunProc"	"47"	"BlackBlack"	"BlackFace1.bmp"	"BlackFace3.bmp"	"BlackFace1.bmp"	"BlackFace3.bmp"	"NULL"	"NULL"	"NULL"	1	202	"fast"	NA	"Black"	"Blac"	"Other"
"14"	"Scherer_2015_BG"	"BlackGun"	"1"	"M"	"1"	"Convenience"	"RightGun"	"small"	"5/8/2015"	"11:01:52"	"RunProc"	"48"	"WhiteBlack"	"whiteface3.bmp"	"BlackFace2.bmp"	"BlackFace3.bmp"	"BlackFace2.bmp"	"NULL"	"whiteface3.bmp"	"NULL"	1	254	"fast"	NA	"white"	"Blac"	"Other"
"14"	"Scherer_2015_BG"	"BlackGun"	"1"	"M"	"1"	"Convenience"	"RightGun"	"small"	"5/8/2015"	"11:01:52"	"RunProc"	"49"	"BlackGun"	"BlackFace2.bmp"	"WEAPON3dk.bmp"	"BlackFace2.bmp"	"BlackFace3.bmp"	"WEAPON3dk.bmp"	"NULL"	"NULL"	0	209	"fast"	NA	"Black"	"WEAP"	"Gun"
"14"	"Scherer_2015_BG"	"BlackGun"	"1"	"M"	"1"	"Convenience"	"RightGun"	"small"	"5/8/2015"	"11:01:52"	"RunProc"	"50"	"BlackBlack"	"BlackFace1.bmp"	"BlackFace3.bmp"	"BlackFace1.bmp"	"BlackFace3.bmp"	"NULL"	"NULL"	"NULL"	1	260	"fast"	NA	"Black"	"Blac"	"Other"
"14"	"Scherer_2015_BG"	"BlackGun"	"1"	"M"	"1"	"Convenience"	"RightGun"	"small"	"5/8/2015"	"11:01:52"	"RunProc"	"51"	"BlackBlack"	"BlackFace3.bmp"	"BlackFace1.bmp"	"BlackFace3.bmp"	"BlackFace1.bmp"	"NULL"	"NULL"	"NULL"	1	125	"fast"	NA	"Black"	"Blac"	"Other"
"14"	"Scherer_2015_BG"	"BlackGun"	"1"	"M"	"1"	"Convenience"	"RightGun"	"small"	"5/8/2015"	"11:01:52"	"RunProc"	"52"	"WhiteGun"	"whiteface4.bmp"	"WEAPON1dk.bmp"	"NULL"	"NULL"	"WEAPON1dk.bmp"	"whiteface4.bmp"	"NULL"	0	223	"fast"	NA	"white"	"WEAP"	"Gun"
"14"	"Scherer_2015_BG"	"BlackGun"	"1"	"M"	"1"	"Convenience"	"RightGun"	"small"	"5/8/2015"	"11:01:52"	"RunProc"	"53"	"WhiteGun"	"whiteface3.bmp"	"WEAPON4dk.bmp"	"NULL"	"NULL"	"WEAPON4dk.bmp"	"whiteface3.bmp"	"NULL"	1	429	"fast"	NA	"white"	"WEAP"	"Gun"
"14"	"Scherer_2015_BG"	"BlackGun"	"1"	"M"	"1"	"Convenience"	"RightGun"	"small"	"5/8/2015"	"11:01:52"	"RunProc"	"54"	"WhiteBlack"	"whiteface2.bmp"	"BlackFace2.bmp"	"BlackFace4.bmp"	"BlackFace2.bmp"	"NULL"	"whiteface2.bmp"	"NULL"	1	165	"fast"	NA	"white"	"Blac"	"Other"
"14"	"Scherer_2015_BG"	"BlackGun"	"1"	"M"	"1"	"Convenience"	"RightGun"	"small"	"5/8/2015"	"11:01:52"	"RunProc"	"55"	"WhiteBlack"	"whiteface1.bmp"	"BlackFace2.bmp"	"BlackFace1.bmp"	"BlackFace2.bmp"	"NULL"	"whiteface1.bmp"	"NULL"	1	269	"fast"	NA	"white"	"Blac"	"Other"
"14"	"Scherer_2015_BG"	"BlackGun"	"1"	"M"	"1"	"Convenience"	"RightGun"	"small"	"5/8/2015"	"11:01:52"	"RunProc"	"56"	"BlackGun"	"BlackFace2.bmp"	"WEAPON2dk.bmp"	"BlackFace2.bmp"	"BlackFace1.bmp"	"WEAPON2dk.bmp"	"NULL"	"NULL"	0	181	"fast"	NA	"Black"	"WEAP"	"Gun"
"14"	"Scherer_2015_BG"	"BlackGun"	"1"	"M"	"1"	"Convenience"	"RightGun"	"small"	"5/8/2015"	"11:01:52"	"RunProc"	"57"	"WhiteBlack"	"whiteface4.bmp"	"BlackFace1.bmp"	"BlackFace4.bmp"	"BlackFace1.bmp"	"NULL"	"whiteface4.bmp"	"NULL"	1	377	"fast"	NA	"white"	"Blac"	"Other"
"14"	"Scherer_2015_BG"	"BlackGun"	"1"	"M"	"1"	"Convenience"	"RightGun"	"small"	"5/8/2015"	"11:01:52"	"RunProc"	"58"	"BlackGun"	"BlackFace2.bmp"	"WEAPON1dk.bmp"	"BlackFace2.bmp"	"BlackFace3.bmp"	"WEAPON1dk.bmp"	"NULL"	"NULL"	0	151	"fast"	NA	"Black"	"WEAP"	"Gun"
"14"	"Scherer_2015_BG"	"BlackGun"	"1"	"M"	"1"	"Convenience"	"RightGun"	"small"	"5/8/2015"	"11:01:52"	"RunProc"	"59"	"WhiteBlack"	"whiteface3.bmp"	"BlackFace4.bmp"	"BlackFace2.bmp"	"BlackFace4.bmp"	"NULL"	"whiteface3.bmp"	"NULL"	1	327	"fast"	NA	"white"	"Blac"	"Other"
"14"	"Scherer_2015_BG"	"BlackGun"	"1"	"M"	"1"	"Convenience"	"RightGun"	"small"	"5/8/2015"	"11:01:52"	"RunProc"	"60"	"BlackGun"	"BlackFace3.bmp"	"WEAPON2dk.bmp"	"BlackFace3.bmp"	"BlackFace4.bmp"	"WEAPON2dk.bmp"	"NULL"	"NULL"	0	250	"fast"	NA	"Black"	"WEAP"	"Gun"
"14"	"Scherer_2015_BG"	"BlackGun"	"1"	"M"	"1"	"Convenience"	"RightGun"	"small"	"5/8/2015"	"11:01:52"	"RunProc"	"62"	"BlackBlack"	"BlackFace4.bmp"	"BlackFace3.bmp"	"BlackFace4.bmp"	"BlackFace3.bmp"	"NULL"	"NULL"	"NULL"	1	290	"fast"	NA	"Black"	"Blac"	"Other"
"14"	"Scherer_2015_BG"	"BlackGun"	"1"	"M"	"1"	"Convenience"	"RightGun"	"small"	"5/8/2015"	"11:01:52"	"RunProc"	"63"	"WhiteGun"	"whiteface2.bmp"	"WEAPON4dk.bmp"	"NULL"	"NULL"	"WEAPON4dk.bmp"	"whiteface2.bmp"	"NULL"	0	236	"fast"	NA	"white"	"WEAP"	"Gun"
"14"	"Scherer_2015_BG"	"BlackGun"	"1"	"M"	"1"	"Convenience"	"RightGun"	"small"	"5/8/2015"	"11:01:52"	"RunProc"	"64"	"WhiteGun"	"whiteface1.bmp"	"WEAPON3dk.bmp"	"NULL"	"NULL"	"WEAPON3dk.bmp"	"whiteface1.bmp"	"NULL"	0	230	"fast"	NA	"white"	"WEAP"	"Gun"
"14"	"Scherer_2015_BG"	"BlackGun"	"1"	"M"	"1"	"Convenience"	"RightGun"	"small"	"5/8/2015"	"11:01:52"	"RunProc"	"65"	"WhiteGun"	"whiteface3.bmp"	"WEAPON4dk.bmp"	"NULL"	"NULL"	"WEAPON4dk.bmp"	"whiteface3.bmp"	"NULL"	0	212	"fast"	NA	"white"	"WEAP"	"Gun"
"14"	"Scherer_2015_BG"	"BlackGun"	"1"	"M"	"1"	"Convenience"	"RightGun"	"small"	"5/8/2015"	"11:01:52"	"RunProc"	"66"	"BlackGun"	"BlackFace3.bmp"	"WEAPON2dk.bmp"	"BlackFace3.bmp"	"BlackFace2.bmp"	"WEAPON2dk.bmp"	"NULL"	"NULL"	0	177	"fast"	NA	"Black"	"WEAP"	"Gun"
"14"	"Scherer_2015_BG"	"BlackGun"	"1"	"M"	"1"	"Convenience"	"RightGun"	"small"	"5/8/2015"	"11:01:52"	"RunProc"	"67"	"WhiteGun"	"whiteface1.bmp"	"WEAPON3dk.bmp"	"NULL"	"NULL"	"WEAPON3dk.bmp"	"whiteface1.bmp"	"NULL"	0	226	"fast"	NA	"white"	"WEAP"	"Gun"
"14"	"Scherer_2015_BG"	"BlackGun"	"1"	"M"	"1"	"Convenience"	"RightGun"	"small"	"5/8/2015"	"11:01:52"	"RunProc"	"68"	"WhiteBlack"	"whiteface2.bmp"	"BlackFace4.bmp"	"BlackFace1.bmp"	"BlackFace4.bmp"	"NULL"	"whiteface2.bmp"	"NULL"	1	248	"fast"	NA	"white"	"Blac"	"Other"
"14"	"Scherer_2015_BG"	"BlackGun"	"1"	"M"	"1"	"Convenience"	"RightGun"	"small"	"5/8/2015"	"11:01:52"	"RunProc"	"69"	"BlackBlack"	"BlackFace3.bmp"	"BlackFace1.bmp"	"BlackFace3.bmp"	"BlackFace1.bmp"	"NULL"	"NULL"	"NULL"	1	233	"fast"	NA	"Black"	"Blac"	"Other"
"14"	"Scherer_2015_BG"	"BlackGun"	"1"	"M"	"1"	"Convenience"	"RightGun"	"small"	"5/8/2015"	"11:01:52"	"RunProc"	"70"	"WhiteGun"	"whiteface4.bmp"	"WEAPON1dk.bmp"	"NULL"	"NULL"	"WEAPON1dk.bmp"	"whiteface4.bmp"	"NULL"	0	269	"fast"	NA	"white"	"WEAP"	"Gun"
"14"	"Scherer_2015_BG"	"BlackGun"	"1"	"M"	"1"	"Convenience"	"RightGun"	"small"	"5/8/2015"	"11:01:52"	"RunProc"	"71"	"BlackGun"	"BlackFace3.bmp"	"WEAPON3dk.bmp"	"BlackFace3.bmp"	"BlackFace4.bmp"	"WEAPON3dk.bmp"	"NULL"	"NULL"	0	133	"fast"	NA	"Black"	"WEAP"	"Gun"
"14"	"Scherer_2015_BG"	"BlackGun"	"1"	"M"	"1"	"Convenience"	"RightGun"	"small"	"5/8/2015"	"11:01:52"	"RunProc"	"72"	"BlackBlack"	"BlackFace4.bmp"	"BlackFace3.bmp"	"BlackFace4.bmp"	"BlackFace3.bmp"	"NULL"	"NULL"	"NULL"	1	168	"fast"	NA	"Black"	"Blac"	"Other"
"14"	"Scherer_2015_BG"	"BlackGun"	"1"	"M"	"1"	"Convenience"	"RightGun"	"small"	"5/8/2015"	"11:01:52"	"RunProc"	"73"	"WhiteBlack"	"whiteface4.bmp"	"BlackFace3.bmp"	"BlackFace1.bmp"	"BlackFace3.bmp"	"NULL"	"whiteface4.bmp"	"NULL"	1	154	"fast"	NA	"white"	"Blac"	"Other"
"14"	"Scherer_2015_BG"	"BlackGun"	"1"	"M"	"1"	"Convenience"	"RightGun"	"small"	"5/8/2015"	"11:01:52"	"RunProc"	"74"	"WhiteGun"	"whiteface3.bmp"	"WEAPON2dk.bmp"	"NULL"	"NULL"	"WEAPON2dk.bmp"	"whiteface3.bmp"	"NULL"	0	177	"fast"	NA	"white"	"WEAP"	"Gun"
"14"	"Scherer_2015_BG"	"BlackGun"	"1"	"M"	"1"	"Convenience"	"RightGun"	"small"	"5/8/2015"	"11:01:52"	"RunProc"	"75"	"WhiteBlack"	"whiteface2.bmp"	"BlackFace1.bmp"	"BlackFace4.bmp"	"BlackFace1.bmp"	"NULL"	"whiteface2.bmp"	"NULL"	1	67	"fast"	NA	"white"	"Blac"	"Other"
"14"	"Scherer_2015_BG"	"BlackGun"	"1"	"M"	"1"	"Convenience"	"RightGun"	"small"	"5/8/2015"	"11:01:52"	"RunProc"	"76"	"WhiteBlack"	"whiteface1.bmp"	"BlackFace2.bmp"	"BlackFace1.bmp"	"BlackFace2.bmp"	"NULL"	"whiteface1.bmp"	"NULL"	1	73	"fast"	NA	"white"	"Blac"	"Other"
"14"	"Scherer_2015_BG"	"BlackGun"	"1"	"M"	"1"	"Convenience"	"RightGun"	"small"	"5/8/2015"	"11:01:52"	"RunProc"	"77"	"WhiteGun"	"whiteface3.bmp"	"WEAPON1dk.bmp"	"NULL"	"NULL"	"WEAPON1dk.bmp"	"whiteface3.bmp"	"NULL"	0	159	"fast"	NA	"white"	"WEAP"	"Gun"
"14"	"Scherer_2015_BG"	"BlackGun"	"1"	"M"	"1"	"Convenience"	"RightGun"	"small"	"5/8/2015"	"11:01:52"	"RunProc"	"78"	"BlackBlack"	"BlackFace2.bmp"	"BlackFace3.bmp"	"BlackFace2.bmp"	"BlackFace3.bmp"	"NULL"	"NULL"	"NULL"	1	139	"fast"	NA	"Black"	"Blac"	"Other"
"14"	"Scherer_2015_BG"	"BlackGun"	"1"	"M"	"1"	"Convenience"	"RightGun"	"small"	"5/8/2015"	"11:01:52"	"RunProc"	"79"	"WhiteBlack"	"whiteface4.bmp"	"BlackFace1.bmp"	"BlackFace2.bmp"	"BlackFace1.bmp"	"NULL"	"whiteface4.bmp"	"NULL"	1	92	"fast"	NA	"white"	"Blac"	"Other"
"14"	"Scherer_2015_BG"	"BlackGun"	"1"	"M"	"1"	"Convenience"	"RightGun"	"small"	"5/8/2015"	"11:01:52"	"RunProc"	"80"	"BlackGun"	"BlackFace4.bmp"	"WEAPON4dk.bmp"	"BlackFace4.bmp"	"BlackFace2.bmp"	"WEAPON4dk.bmp"	"NULL"	"NULL"	0	74	"fast"	NA	"Black"	"WEAP"	"Gun"
"14"	"Scherer_2015_BG"	"BlackGun"	"1"	"M"	"1"	"Convenience"	"RightGun"	"small"	"5/8/2015"	"11:01:52"	"RunProc"	"81"	"WhiteBlack"	"whiteface2.bmp"	"BlackFace4.bmp"	"BlackFace2.bmp"	"BlackFace4.bmp"	"NULL"	"whiteface2.bmp"	"NULL"	1	120	"fast"	NA	"white"	"Blac"	"Other"
"14"	"Scherer_2015_BG"	"BlackGun"	"1"	"M"	"1"	"Convenience"	"RightGun"	"small"	"5/8/2015"	"11:01:52"	"RunProc"	"82"	"WhiteGun"	"whiteface1.bmp"	"WEAPON1dk.bmp"	"NULL"	"NULL"	"WEAPON1dk.bmp"	"whiteface1.bmp"	"NULL"	1	88	"fast"	NA	"white"	"WEAP"	"Gun"
"14"	"Scherer_2015_BG"	"BlackGun"	"1"	"M"	"1"	"Convenience"	"RightGun"	"small"	"5/8/2015"	"11:01:52"	"RunProc"	"83"	"WhiteBlack"	"whiteface2.bmp"	"BlackFace4.bmp"	"BlackFace1.bmp"	"BlackFace4.bmp"	"NULL"	"whiteface2.bmp"	"NULL"	1	276	"fast"	NA	"white"	"Blac"	"Other"
"14"	"Scherer_2015_BG"	"BlackGun"	"1"	"M"	"1"	"Convenience"	"RightGun"	"small"	"5/8/2015"	"11:01:52"	"RunProc"	"84"	"BlackGun"	"BlackFace3.bmp"	"WEAPON3dk.bmp"	"BlackFace3.bmp"	"BlackFace2.bmp"	"WEAPON3dk.bmp"	"NULL"	"NULL"	1	263	"fast"	NA	"Black"	"WEAP"	"Gun"
"14"	"Scherer_2015_BG"	"BlackGun"	"1"	"M"	"1"	"Convenience"	"RightGun"	"small"	"5/8/2015"	"11:01:52"	"RunProc"	"85"	"BlackBlack"	"BlackFace2.bmp"	"BlackFace4.bmp"	"BlackFace2.bmp"	"BlackFace4.bmp"	"NULL"	"NULL"	"NULL"	1	325	"fast"	NA	"Black"	"Blac"	"Other"
"14"	"Scherer_2015_BG"	"BlackGun"	"1"	"M"	"1"	"Convenience"	"RightGun"	"small"	"5/8/2015"	"11:01:52"	"RunProc"	"86"	"BlackBlack"	"BlackFace1.bmp"	"BlackFace4.bmp"	"BlackFace1.bmp"	"BlackFace4.bmp"	"NULL"	"NULL"	"NULL"	1	279	"fast"	NA	"Black"	"Blac"	"Other"
"14"	"Scherer_2015_BG"	"BlackGun"	"1"	"M"	"1"	"Convenience"	"RightGun"	"small"	"5/8/2015"	"11:01:52"	"RunProc"	"87"	"BlackBlack"	"BlackFace3.bmp"	"BlackFace4.bmp"	"BlackFace3.bmp"	"BlackFace4.bmp"	"NULL"	"NULL"	"NULL"	1	135	"fast"	NA	"Black"	"Blac"	"Other"
"14"	"Scherer_2015_BG"	"BlackGun"	"1"	"M"	"1"	"Convenience"	"RightGun"	"small"	"5/8/2015"	"11:01:52"	"RunProc"	"88"	"WhiteBlack"	"whiteface3.bmp"	"BlackFace3.bmp"	"BlackFace2.bmp"	"BlackFace3.bmp"	"NULL"	"whiteface3.bmp"	"NULL"	1	130	"fast"	NA	"white"	"Blac"	"Other"
"14"	"Scherer_2015_BG"	"BlackGun"	"1"	"M"	"1"	"Convenience"	"RightGun"	"small"	"5/8/2015"	"11:01:52"	"RunProc"	"89"	"BlackGun"	"BlackFace2.bmp"	"WEAPON2dk.bmp"	"BlackFace2.bmp"	"BlackFace1.bmp"	"WEAPON2dk.bmp"	"NULL"	"NULL"	0	159	"fast"	NA	"Black"	"WEAP"	"Gun"
"14"	"Scherer_2015_BG"	"BlackGun"	"1"	"M"	"1"	"Convenience"	"RightGun"	"small"	"5/8/2015"	"11:01:52"	"RunProc"	"90"	"BlackGun"	"BlackFace3.bmp"	"WEAPON4dk.bmp"	"BlackFace3.bmp"	"BlackFace2.bmp"	"WEAPON4dk.bmp"	"NULL"	"NULL"	0	79	"fast"	NA	"Black"	"WEAP"	"Gun"
"14"	"Scherer_2015_BG"	"BlackGun"	"1"	"M"	"1"	"Convenience"	"RightGun"	"small"	"5/8/2015"	"11:01:52"	"RunProc"	"91"	"BlackGun"	"BlackFace1.bmp"	"WEAPON1dk.bmp"	"BlackFace1.bmp"	"BlackFace3.bmp"	"WEAPON1dk.bmp"	"NULL"	"NULL"	0	94	"fast"	NA	"Black"	"WEAP"	"Gun"
"14"	"Scherer_2015_BG"	"BlackGun"	"1"	"M"	"1"	"Convenience"	"RightGun"	"small"	"5/8/2015"	"11:01:52"	"RunProc"	"92"	"WhiteGun"	"whiteface4.bmp"	"WEAPON2dk.bmp"	"NULL"	"NULL"	"WEAPON2dk.bmp"	"whiteface4.bmp"	"NULL"	0	124	"fast"	NA	"white"	"WEAP"	"Gun"
"14"	"Scherer_2015_BG"	"BlackGun"	"1"	"M"	"1"	"Convenience"	"RightGun"	"small"	"5/8/2015"	"11:01:52"	"RunProc"	"93"	"WhiteBlack"	"whiteface1.bmp"	"BlackFace1.bmp"	"BlackFace3.bmp"	"BlackFace1.bmp"	"NULL"	"whiteface1.bmp"	"NULL"	1	56	"fast"	NA	"white"	"Blac"	"Other"
"14"	"Scherer_2015_BG"	"BlackGun"	"1"	"M"	"1"	"Convenience"	"RightGun"	"small"	"5/8/2015"	"11:01:52"	"RunProc"	"94"	"BlackBlack"	"BlackFace4.bmp"	"BlackFace2.bmp"	"BlackFace4.bmp"	"BlackFace2.bmp"	"NULL"	"NULL"	"NULL"	1	152	"fast"	NA	"Black"	"Blac"	"Other"
"14"	"Scherer_2015_BG"	"BlackGun"	"1"	"M"	"1"	"Convenience"	"RightGun"	"small"	"5/8/2015"	"11:01:52"	"RunProc"	"95"	"WhiteBlack"	"whiteface3.bmp"	"BlackFace3.bmp"	"BlackFace4.bmp"	"BlackFace3.bmp"	"NULL"	"whiteface3.bmp"	"NULL"	1	129	"fast"	NA	"white"	"Blac"	"Other"
"14"	"Scherer_2015_BG"	"BlackGun"	"1"	"M"	"1"	"Convenience"	"RightGun"	"small"	"5/8/2015"	"11:01:52"	"RunProc"	"96"	"BlackBlack"	"BlackFace1.bmp"	"BlackFace2.bmp"	"BlackFace1.bmp"	"BlackFace2.bmp"	"NULL"	"NULL"	"NULL"	1	189	"fast"	NA	"Black"	"Blac"	"Other"
"14"	"Scherer_2015_BG"	"BlackGun"	"1"	"M"	"1"	"Convenience"	"RightGun"	"small"	"5/8/2015"	"11:01:52"	"RunProc"	"97"	"BlackGun"	"BlackFace4.bmp"	"WEAPON4dk.bmp"	"BlackFace4.bmp"	"BlackFace1.bmp"	"WEAPON4dk.bmp"	"NULL"	"NULL"	1	182	"fast"	NA	"Black"	"WEAP"	"Gun"
"14"	"Scherer_2015_BG"	"BlackGun"	"1"	"M"	"1"	"Convenience"	"RightGun"	"small"	"5/8/2015"	"11:01:52"	"RunProc"	"98"	"BlackGun"	"BlackFace1.bmp"	"WEAPON3dk.bmp"	"BlackFace1.bmp"	"BlackFace3.bmp"	"WEAPON3dk.bmp"	"NULL"	"NULL"	0	165	"fast"	NA	"Black"	"WEAP"	"Gun"
"14"	"Scherer_2015_BG"	"BlackGun"	"1"	"M"	"1"	"Convenience"	"RightGun"	"small"	"5/8/2015"	"11:01:52"	"RunProc"	"99"	"WhiteGun"	"whiteface4.bmp"	"WEAPON4dk.bmp"	"NULL"	"NULL"	"WEAPON4dk.bmp"	"whiteface4.bmp"	"NULL"	0	110	"fast"	NA	"white"	"WEAP"	"Gun"
"14"	"Scherer_2015_BG"	"BlackGun"	"1"	"M"	"1"	"Convenience"	"RightGun"	"small"	"5/8/2015"	"11:01:52"	"RunProc"	"100"	"BlackGun"	"BlackFace2.bmp"	"WEAPON3dk.bmp"	"BlackFace2.bmp"	"BlackFace3.bmp"	"WEAPON3dk.bmp"	"NULL"	"NULL"	0	159	"fast"	NA	"Black"	"WEAP"	"Gun"
"14"	"Scherer_2015_BG"	"BlackGun"	"1"	"M"	"1"	"Convenience"	"RightGun"	"small"	"5/8/2015"	"11:01:52"	"RunProc"	"101"	"WhiteGun"	"whiteface1.bmp"	"WEAPON2dk.bmp"	"NULL"	"NULL"	"WEAPON2dk.bmp"	"whiteface1.bmp"	"NULL"	1	270	"fast"	NA	"white"	"WEAP"	"Gun"
"14"	"Scherer_2015_BG"	"BlackGun"	"1"	"M"	"1"	"Convenience"	"RightGun"	"small"	"5/8/2015"	"11:01:52"	"RunProc"	"102"	"BlackGun"	"BlackFace3.bmp"	"WEAPON1dk.bmp"	"BlackFace3.bmp"	"BlackFace2.bmp"	"WEAPON1dk.bmp"	"NULL"	"NULL"	0	146	"fast"	NA	"Black"	"WEAP"	"Gun"
"14"	"Scherer_2015_BG"	"BlackGun"	"1"	"M"	"1"	"Convenience"	"RightGun"	"small"	"5/8/2015"	"11:01:52"	"RunProc"	"103"	"BlackBlack"	"BlackFace2.bmp"	"BlackFace1.bmp"	"BlackFace2.bmp"	"BlackFace1.bmp"	"NULL"	"NULL"	"NULL"	1	194	"fast"	NA	"Black"	"Blac"	"Other"
"14"	"Scherer_2015_BG"	"BlackGun"	"1"	"M"	"1"	"Convenience"	"RightGun"	"small"	"5/8/2015"	"11:01:52"	"RunProc"	"104"	"BlackBlack"	"BlackFace2.bmp"	"BlackFace4.bmp"	"BlackFace2.bmp"	"BlackFace4.bmp"	"NULL"	"NULL"	"NULL"	1	147	"fast"	NA	"Black"	"Blac"	"Other"
"14"	"Scherer_2015_BG"	"BlackGun"	"1"	"M"	"1"	"Convenience"	"RightGun"	"small"	"5/8/2015"	"11:01:52"	"RunProc"	"105"	"BlackBlack"	"BlackFace4.bmp"	"BlackFace3.bmp"	"BlackFace4.bmp"	"BlackFace3.bmp"	"NULL"	"NULL"	"NULL"	1	163	"fast"	NA	"Black"	"Blac"	"Other"
"14"	"Scherer_2015_BG"	"BlackGun"	"1"	"M"	"1"	"Convenience"	"RightGun"	"small"	"5/8/2015"	"11:01:52"	"RunProc"	"106"	"WhiteGun"	"whiteface2.bmp"	"WEAPON1dk.bmp"	"NULL"	"NULL"	"WEAPON1dk.bmp"	"whiteface2.bmp"	"NULL"	0	111	"fast"	NA	"white"	"WEAP"	"Gun"
"14"	"Scherer_2015_BG"	"BlackGun"	"1"	"M"	"1"	"Convenience"	"RightGun"	"small"	"5/8/2015"	"11:01:52"	"RunProc"	"107"	"WhiteBlack"	"whiteface2.bmp"	"BlackFace2.bmp"	"BlackFace1.bmp"	"BlackFace2.bmp"	"NULL"	"whiteface2.bmp"	"NULL"	1	66	"fast"	NA	"white"	"Blac"	"Other"
"14"	"Scherer_2015_BG"	"BlackGun"	"1"	"M"	"1"	"Convenience"	"RightGun"	"small"	"5/8/2015"	"11:01:52"	"RunProc"	"108"	"WhiteBlack"	"whiteface1.bmp"	"BlackFace1.bmp"	"BlackFace4.bmp"	"BlackFace1.bmp"	"NULL"	"whiteface1.bmp"	"NULL"	1	155	"fast"	NA	"white"	"Blac"	"Other"
"14"	"Scherer_2015_BG"	"BlackGun"	"1"	"M"	"1"	"Convenience"	"RightGun"	"small"	"5/8/2015"	"11:01:52"	"RunProc"	"109"	"BlackBlack"	"BlackFace3.bmp"	"BlackFace1.bmp"	"BlackFace3.bmp"	"BlackFace1.bmp"	"NULL"	"NULL"	"NULL"	1	163	"fast"	NA	"Black"	"Blac"	"Other"
"14"	"Scherer_2015_BG"	"BlackGun"	"1"	"M"	"1"	"Convenience"	"RightGun"	"small"	"5/8/2015"	"11:01:52"	"RunProc"	"110"	"WhiteGun"	"whiteface4.bmp"	"WEAPON4dk.bmp"	"NULL"	"NULL"	"WEAPON4dk.bmp"	"whiteface4.bmp"	"NULL"	1	169	"fast"	NA	"white"	"WEAP"	"Gun"
"14"	"Scherer_2015_BG"	"BlackGun"	"1"	"M"	"1"	"Convenience"	"RightGun"	"small"	"5/8/2015"	"11:01:52"	"RunProc"	"111"	"BlackGun"	"BlackFace3.bmp"	"WEAPON3dk.bmp"	"BlackFace3.bmp"	"BlackFace4.bmp"	"WEAPON3dk.bmp"	"NULL"	"NULL"	0	165	"fast"	NA	"Black"	"WEAP"	"Gun"
"14"	"Scherer_2015_BG"	"BlackGun"	"1"	"M"	"1"	"Convenience"	"RightGun"	"small"	"5/8/2015"	"11:01:52"	"RunProc"	"112"	"WhiteBlack"	"whiteface3.bmp"	"BlackFace4.bmp"	"BlackFace1.bmp"	"BlackFace4.bmp"	"NULL"	"whiteface3.bmp"	"NULL"	0	129	"fast"	NA	"white"	"Blac"	"Other"
"14"	"Scherer_2015_BG"	"BlackGun"	"1"	"M"	"1"	"Convenience"	"RightGun"	"small"	"5/8/2015"	"11:01:52"	"RunProc"	"113"	"BlackBlack"	"BlackFace4.bmp"	"BlackFace2.bmp"	"BlackFace4.bmp"	"BlackFace2.bmp"	"NULL"	"NULL"	"NULL"	1	148	"fast"	NA	"Black"	"Blac"	"Other"
"14"	"Scherer_2015_BG"	"BlackGun"	"1"	"M"	"1"	"Convenience"	"RightGun"	"small"	"5/8/2015"	"11:01:52"	"RunProc"	"114"	"BlackGun"	"BlackFace3.bmp"	"WEAPON2dk.bmp"	"BlackFace3.bmp"	"BlackFace1.bmp"	"WEAPON2dk.bmp"	"NULL"	"NULL"	0	178	"fast"	NA	"Black"	"WEAP"	"Gun"
"14"	"Scherer_2015_BG"	"BlackGun"	"1"	"M"	"1"	"Convenience"	"RightGun"	"small"	"5/8/2015"	"11:01:52"	"RunProc"	"115"	"BlackGun"	"BlackFace2.bmp"	"WEAPON2dk.bmp"	"BlackFace2.bmp"	"BlackFace4.bmp"	"WEAPON2dk.bmp"	"NULL"	"NULL"	0	167	"fast"	NA	"Black"	"WEAP"	"Gun"
"14"	"Scherer_2015_BG"	"BlackGun"	"1"	"M"	"1"	"Convenience"	"RightGun"	"small"	"5/8/2015"	"11:01:52"	"RunProc"	"116"	"BlackBlack"	"BlackFace1.bmp"	"BlackFace4.bmp"	"BlackFace1.bmp"	"BlackFace4.bmp"	"NULL"	"NULL"	"NULL"	0	164	"fast"	NA	"Black"	"Blac"	"Other"
"14"	"Scherer_2015_BG"	"BlackGun"	"1"	"M"	"1"	"Convenience"	"RightGun"	"small"	"5/8/2015"	"11:01:52"	"RunProc"	"117"	"WhiteGun"	"whiteface2.bmp"	"WEAPON3dk.bmp"	"NULL"	"NULL"	"WEAPON3dk.bmp"	"whiteface2.bmp"	"NULL"	0	173	"fast"	NA	"white"	"WEAP"	"Gun"
"14"	"Scherer_2015_BG"	"BlackGun"	"1"	"M"	"1"	"Convenience"	"RightGun"	"small"	"5/8/2015"	"11:01:52"	"RunProc"	"118"	"WhiteBlack"	"whiteface3.bmp"	"BlackFace3.bmp"	"BlackFace2.bmp"	"BlackFace3.bmp"	"NULL"	"whiteface3.bmp"	"NULL"	1	98	"fast"	NA	"white"	"Blac"	"Other"
"14"	"Scherer_2015_BG"	"BlackGun"	"1"	"M"	"1"	"Convenience"	"RightGun"	"small"	"5/8/2015"	"11:01:52"	"RunProc"	"119"	"WhiteBlack"	"whiteface4.bmp"	"BlackFace2.bmp"	"BlackFace3.bmp"	"BlackFace2.bmp"	"NULL"	"whiteface4.bmp"	"NULL"	1	106	"fast"	NA	"white"	"Blac"	"Other"
"14"	"Scherer_2015_BG"	"BlackGun"	"1"	"M"	"1"	"Convenience"	"RightGun"	"small"	"5/8/2015"	"11:01:52"	"RunProc"	"120"	"BlackGun"	"BlackFace2.bmp"	"WEAPON1dk.bmp"	"BlackFace2.bmp"	"BlackFace1.bmp"	"WEAPON1dk.bmp"	"NULL"	"NULL"	0	80	"fast"	NA	"Black"	"WEAP"	"Gun"
"14"	"Scherer_2015_BG"	"BlackGun"	"1"	"M"	"1"	"Convenience"	"RightGun"	"small"	"5/8/2015"	"11:01:52"	"RunProc"	"121"	"WhiteGun"	"whiteface1.bmp"	"WEAPON4dk.bmp"	"NULL"	"NULL"	"WEAPON4dk.bmp"	"whiteface1.bmp"	"NULL"	0	114	"fast"	NA	"white"	"WEAP"	"Gun"
"16"	"Scherer_2015_BG"	"BlackGun"	"1"	"M"	"4"	"Inconvenience"	"RightGun"	"small"	"5/8/2015"	"11:10:19"	"RunProc"	"1"	"BlackBlack"	"BlackFace3.bmp"	"BlackFace4.bmp"	"BlackFace3.bmp"	"BlackFace4.bmp"	"NULL"	"NULL"	"NULL"	1	90	"fast"	NA	"Black"	"Blac"	"Other"
"16"	"Scherer_2015_BG"	"BlackGun"	"1"	"M"	"4"	"Inconvenience"	"RightGun"	"small"	"5/8/2015"	"11:10:19"	"RunProc"	"2"	"BlackBlack"	"BlackFace1.bmp"	"BlackFace3.bmp"	"BlackFace1.bmp"	"BlackFace3.bmp"	"NULL"	"NULL"	"NULL"	1	147	"fast"	NA	"Black"	"Blac"	"Other"
"16"	"Scherer_2015_BG"	"BlackGun"	"1"	"M"	"4"	"Inconvenience"	"RightGun"	"small"	"5/8/2015"	"11:10:19"	"RunProc"	"3"	"WhiteGun"	"whiteface2.bmp"	"WEAPON1dk.bmp"	"NULL"	"NULL"	"WEAPON1dk.bmp"	"whiteface2.bmp"	"NULL"	0	174	"fast"	NA	"white"	"WEAP"	"Gun"
"16"	"Scherer_2015_BG"	"BlackGun"	"1"	"M"	"4"	"Inconvenience"	"RightGun"	"small"	"5/8/2015"	"11:10:19"	"RunProc"	"4"	"WhiteGun"	"whiteface3.bmp"	"WEAPON2dk.bmp"	"NULL"	"NULL"	"WEAPON2dk.bmp"	"whiteface3.bmp"	"NULL"	0	69	"fast"	NA	"white"	"WEAP"	"Gun"
"16"	"Scherer_2015_BG"	"BlackGun"	"1"	"M"	"4"	"Inconvenience"	"RightGun"	"small"	"5/8/2015"	"11:10:19"	"RunProc"	"5"	"WhiteGun"	"whiteface1.bmp"	"WEAPON3dk.bmp"	"NULL"	"NULL"	"WEAPON3dk.bmp"	"whiteface1.bmp"	"NULL"	0	61	"fast"	NA	"white"	"WEAP"	"Gun"
"16"	"Scherer_2015_BG"	"BlackGun"	"1"	"M"	"4"	"Inconvenience"	"RightGun"	"small"	"5/8/2015"	"11:10:19"	"RunProc"	"6"	"WhiteBlack"	"whiteface4.bmp"	"BlackFace1.bmp"	"BlackFace3.bmp"	"BlackFace1.bmp"	"NULL"	"whiteface4.bmp"	"NULL"	1	35	"fast"	NA	"white"	"Blac"	"Other"
"16"	"Scherer_2015_BG"	"BlackGun"	"1"	"M"	"4"	"Inconvenience"	"RightGun"	"small"	"5/8/2015"	"11:10:19"	"RunProc"	"7"	"BlackGun"	"BlackFace4.bmp"	"WEAPON4dk.bmp"	"BlackFace4.bmp"	"BlackFace2.bmp"	"WEAPON4dk.bmp"	"NULL"	"NULL"	0	99	"fast"	NA	"Black"	"WEAP"	"Gun"
"16"	"Scherer_2015_BG"	"BlackGun"	"1"	"M"	"4"	"Inconvenience"	"RightGun"	"small"	"5/8/2015"	"11:10:19"	"RunProc"	"8"	"BlackGun"	"BlackFace2.bmp"	"WEAPON2dk.bmp"	"BlackFace2.bmp"	"BlackFace4.bmp"	"WEAPON2dk.bmp"	"NULL"	"NULL"	0	120	"fast"	NA	"Black"	"WEAP"	"Gun"
"16"	"Scherer_2015_BG"	"BlackGun"	"1"	"M"	"4"	"Inconvenience"	"RightGun"	"small"	"5/8/2015"	"11:10:19"	"RunProc"	"9"	"WhiteBlack"	"whiteface2.bmp"	"BlackFace2.bmp"	"BlackFace3.bmp"	"BlackFace2.bmp"	"NULL"	"whiteface2.bmp"	"NULL"	0	0	"slow"	NA	"white"	"Blac"	"Other"
"16"	"Scherer_2015_BG"	"BlackGun"	"1"	"M"	"4"	"Inconvenience"	"RightGun"	"small"	"5/8/2015"	"11:10:19"	"RunProc"	"10"	"BlackGun"	"BlackFace1.bmp"	"WEAPON4dk.bmp"	"BlackFace1.bmp"	"BlackFace2.bmp"	"WEAPON4dk.bmp"	"NULL"	"NULL"	0	176	"fast"	NA	"Black"	"WEAP"	"Gun"
"16"	"Scherer_2015_BG"	"BlackGun"	"1"	"M"	"4"	"Inconvenience"	"RightGun"	"small"	"5/8/2015"	"11:10:19"	"RunProc"	"11"	"BlackGun"	"BlackFace1.bmp"	"WEAPON3dk.bmp"	"BlackFace1.bmp"	"BlackFace4.bmp"	"WEAPON3dk.bmp"	"NULL"	"NULL"	0	183	"fast"	NA	"Black"	"WEAP"	"Gun"
"16"	"Scherer_2015_BG"	"BlackGun"	"1"	"M"	"4"	"Inconvenience"	"RightGun"	"small"	"5/8/2015"	"11:10:19"	"RunProc"	"12"	"WhiteGun"	"whiteface1.bmp"	"WEAPON1dk.bmp"	"NULL"	"NULL"	"WEAPON1dk.bmp"	"whiteface1.bmp"	"NULL"	0	0	"slow"	NA	"white"	"WEAP"	"Gun"
"16"	"Scherer_2015_BG"	"BlackGun"	"1"	"M"	"4"	"Inconvenience"	"RightGun"	"small"	"5/8/2015"	"11:10:19"	"RunProc"	"13"	"WhiteBlack"	"whiteface3.bmp"	"BlackFace1.bmp"	"BlackFace4.bmp"	"BlackFace1.bmp"	"NULL"	"whiteface3.bmp"	"NULL"	0	0	"slow"	NA	"white"	"Blac"	"Other"
"16"	"Scherer_2015_BG"	"BlackGun"	"1"	"M"	"4"	"Inconvenience"	"RightGun"	"small"	"5/8/2015"	"11:10:19"	"RunProc"	"14"	"BlackBlack"	"BlackFace2.bmp"	"BlackFace1.bmp"	"BlackFace2.bmp"	"BlackFace1.bmp"	"NULL"	"NULL"	"NULL"	1	597	"slow"	NA	"Black"	"Blac"	"Other"
"16"	"Scherer_2015_BG"	"BlackGun"	"1"	"M"	"4"	"Inconvenience"	"RightGun"	"small"	"5/8/2015"	"11:10:19"	"RunProc"	"15"	"WhiteGun"	"whiteface4.bmp"	"WEAPON3dk.bmp"	"NULL"	"NULL"	"WEAPON3dk.bmp"	"whiteface4.bmp"	"NULL"	0	131	"fast"	NA	"white"	"WEAP"	"Gun"
"16"	"Scherer_2015_BG"	"BlackGun"	"1"	"M"	"4"	"Inconvenience"	"RightGun"	"small"	"5/8/2015"	"11:10:19"	"RunProc"	"16"	"WhiteBlack"	"whiteface1.bmp"	"BlackFace3.bmp"	"BlackFace2.bmp"	"BlackFace3.bmp"	"NULL"	"whiteface1.bmp"	"NULL"	1	146	"fast"	NA	"white"	"Blac"	"Other"
"16"	"Scherer_2015_BG"	"BlackGun"	"1"	"M"	"4"	"Inconvenience"	"RightGun"	"small"	"5/8/2015"	"11:10:19"	"RunProc"	"17"	"BlackGun"	"BlackFace4.bmp"	"WEAPON2dk.bmp"	"BlackFace4.bmp"	"BlackFace3.bmp"	"WEAPON2dk.bmp"	"NULL"	"NULL"	0	123	"fast"	NA	"Black"	"WEAP"	"Gun"
"16"	"Scherer_2015_BG"	"BlackGun"	"1"	"M"	"4"	"Inconvenience"	"RightGun"	"small"	"5/8/2015"	"11:10:19"	"RunProc"	"18"	"WhiteBlack"	"whiteface3.bmp"	"BlackFace3.bmp"	"BlackFace2.bmp"	"BlackFace3.bmp"	"NULL"	"whiteface3.bmp"	"NULL"	1	127	"fast"	NA	"white"	"Blac"	"Other"
"16"	"Scherer_2015_BG"	"BlackGun"	"1"	"M"	"4"	"Inconvenience"	"RightGun"	"small"	"5/8/2015"	"11:10:19"	"RunProc"	"19"	"WhiteBlack"	"whiteface4.bmp"	"BlackFace4.bmp"	"BlackFace1.bmp"	"BlackFace4.bmp"	"NULL"	"whiteface4.bmp"	"NULL"	1	156	"fast"	NA	"white"	"Blac"	"Other"
"16"	"Scherer_2015_BG"	"BlackGun"	"1"	"M"	"4"	"Inconvenience"	"RightGun"	"small"	"5/8/2015"	"11:10:19"	"RunProc"	"20"	"BlackBlack"	"BlackFace3.bmp"	"BlackFace2.bmp"	"BlackFace3.bmp"	"BlackFace2.bmp"	"NULL"	"NULL"	"NULL"	1	80	"fast"	NA	"Black"	"Blac"	"Other"
"16"	"Scherer_2015_BG"	"BlackGun"	"1"	"M"	"4"	"Inconvenience"	"RightGun"	"small"	"5/8/2015"	"11:10:19"	"RunProc"	"21"	"BlackBlack"	"BlackFace1.bmp"	"BlackFace2.bmp"	"BlackFace1.bmp"	"BlackFace2.bmp"	"NULL"	"NULL"	"NULL"	1	434	"fast"	NA	"Black"	"Blac"	"Other"
"16"	"Scherer_2015_BG"	"BlackGun"	"1"	"M"	"4"	"Inconvenience"	"RightGun"	"small"	"5/8/2015"	"11:10:19"	"RunProc"	"22"	"WhiteBlack"	"whiteface2.bmp"	"BlackFace3.bmp"	"BlackFace4.bmp"	"BlackFace3.bmp"	"NULL"	"whiteface2.bmp"	"NULL"	1	128	"fast"	NA	"white"	"Blac"	"Other"
"16"	"Scherer_2015_BG"	"BlackGun"	"1"	"M"	"4"	"Inconvenience"	"RightGun"	"small"	"5/8/2015"	"11:10:19"	"RunProc"	"23"	"BlackBlack"	"BlackFace1.bmp"	"BlackFace3.bmp"	"BlackFace1.bmp"	"BlackFace3.bmp"	"NULL"	"NULL"	"NULL"	1	429	"fast"	NA	"Black"	"Blac"	"Other"
"16"	"Scherer_2015_BG"	"BlackGun"	"1"	"M"	"4"	"Inconvenience"	"RightGun"	"small"	"5/8/2015"	"11:10:19"	"RunProc"	"24"	"BlackGun"	"BlackFace3.bmp"	"WEAPON4dk.bmp"	"BlackFace3.bmp"	"BlackFace4.bmp"	"WEAPON4dk.bmp"	"NULL"	"NULL"	0	252	"fast"	NA	"Black"	"WEAP"	"Gun"
