"Subject"	"Session"	"SessionDate"	"SessionTime"	"Condition"	"mapping"	"Trial"	"Gender.RESP"	"Race.RESP"	"SubTrial"	"BlackPrime"	"ChunkList"	"Correct"	"feedbackmask"	"GunTarget"	"ITIValue"	"NeuTarget"	"Probe.ACC"	"Probe.RT"	"Probe1.ACC"	"Probe1.RT"	"ProbeType"	"Procedure.Trial."	"Procedure.SubTrial."	"Repeat"	"Running.SubTrial."	"ToolTarget"	"TrialType"	"WhitePrime"
10	10	"11/19/2015"	"16:27:18"	"GunNeu"	"RightGun"	4	1	1	1	"BlackFace2.bmp"	1	"j"	"fast"	"WEAPON1.bmp"	NA	""	0	306	NA	NA	"WEAPON1.bmp"	"RunProc"	"TrialProc"	""	"ChunkList"	""	"BlackGun"	""
10	10	"11/19/2015"	"16:27:18"	"GunNeu"	"RightGun"	4	1	1	2	""	1	"f"	"slow"	""	NA	"gripstrength.bmp"	1	689	NA	NA	"gripstrength.bmp"	"RunProc"	"TrialProc"	""	"ChunkList"	""	"WhiteNeu"	"whiteface2.bmp"
10	10	"11/19/2015"	"16:27:18"	"GunNeu"	"RightGun"	4	1	1	3	"BlackFace4.bmp"	1	"f"	"fast"	""	NA	"giraffe.bmp"	1	193	NA	NA	"giraffe.bmp"	"RunProc"	"TrialProc"	""	"ChunkList"	""	"BlackNeu"	""
10	10	"11/19/2015"	"16:27:18"	"GunNeu"	"RightGun"	4	1	1	4	""	1	"f"	"fast"	""	NA	"banana.bmp"	1	256	NA	NA	"banana.bmp"	"RunProc"	"TrialProc"	""	"ChunkList"	""	"WhiteNeu"	"whiteface4.bmp"
10	10	"11/19/2015"	"16:27:18"	"GunNeu"	"RightGun"	4	1	1	5	"BlackFace3.bmp"	1	"f"	"fast"	""	NA	"absneut3.bmp"	1	183	NA	NA	"absneut3.bmp"	"RunProc"	"TrialProc"	""	"ChunkList"	""	"BlackNeu"	""
10	10	"11/19/2015"	"16:27:18"	"GunNeu"	"RightGun"	4	1	1	6	"BlackFace1.bmp"	1	"j"	"fast"	"WEAPON2.bmp"	NA	""	0	247	NA	NA	"WEAPON2.bmp"	"RunProc"	"TrialProc"	""	"ChunkList"	""	"BlackGun"	""
10	10	"11/19/2015"	"16:27:18"	"GunNeu"	"RightGun"	4	1	1	7	""	1	"j"	"fast"	"WEAPON3.bmp"	NA	""	1	334	NA	NA	"WEAPON3.bmp"	"RunProc"	"TrialProc"	""	"ChunkList"	""	"WhiteGun"	"whiteface3.bmp"
10	10	"11/19/2015"	"16:27:18"	"GunNeu"	"RightGun"	4	1	1	8	""	1	"f"	"slow"	""	NA	"giraffe.bmp"	1	509	NA	NA	"giraffe.bmp"	"RunProc"	"TrialProc"	""	"ChunkList"	""	"WhiteNeu"	"whiteface1.bmp"
10	10	"11/19/2015"	"16:27:18"	"GunNeu"	"RightGun"	4	1	1	9	""	1	"f"	"fast"	""	NA	"banana.bmp"	1	252	NA	NA	"banana.bmp"	"RunProc"	"TrialProc"	""	"ChunkList"	""	"WhiteNeu"	"whiteface4.bmp"
10	10	"11/19/2015"	"16:27:18"	"GunNeu"	"RightGun"	4	1	1	10	""	1	"j"	"fast"	"WEAPON4.bmp"	NA	""	1	412	NA	NA	"WEAPON4.bmp"	"RunProc"	"TrialProc"	""	"ChunkList"	""	"WhiteGun"	"whiteface1.bmp"
10	10	"11/19/2015"	"16:27:18"	"GunNeu"	"RightGun"	4	1	1	11	""	1	"f"	"fast"	""	NA	"absneut3.bmp"	1	411	NA	NA	"absneut3.bmp"	"RunProc"	"TrialProc"	""	"ChunkList"	""	"WhiteNeu"	"whiteface2.bmp"
10	10	"11/19/2015"	"16:27:18"	"GunNeu"	"RightGun"	4	1	1	12	""	1	"j"	"fast"	"WEAPON4.bmp"	NA	""	1	434	NA	NA	"WEAPON4.bmp"	"RunProc"	"TrialProc"	""	"ChunkList"	""	"WhiteGun"	"whiteface3.bmp"
10	10	"11/19/2015"	"16:27:18"	"GunNeu"	"RightGun"	4	1	1	13	"BlackFace3.bmp"	1	"j"	"fast"	"WEAPON1.bmp"	NA	""	1	402	NA	NA	"WEAPON1.bmp"	"RunProc"	"TrialProc"	""	"ChunkList"	""	"BlackGun"	""
10	10	"11/19/2015"	"16:27:18"	"GunNeu"	"RightGun"	4	1	1	14	"BlackFace4.bmp"	1	"j"	"fast"	"WEAPON2.bmp"	NA	""	1	345	NA	NA	"WEAPON2.bmp"	"RunProc"	"TrialProc"	""	"ChunkList"	""	"BlackGun"	""
10	10	"11/19/2015"	"16:27:18"	"GunNeu"	"RightGun"	4	1	1	15	"BlackFace1.bmp"	1	"j"	"fast"	"WEAPON3.bmp"	NA	""	1	352	NA	NA	"WEAPON3.bmp"	"RunProc"	"TrialProc"	""	"ChunkList"	""	"BlackGun"	""
10	10	"11/19/2015"	"16:27:18"	"GunNeu"	"RightGun"	4	1	1	16	""	1	"j"	"fast"	"WEAPON3.bmp"	NA	""	0	304	NA	NA	"WEAPON3.bmp"	"RunProc"	"TrialProc"	""	"ChunkList"	""	"WhiteGun"	"whiteface4.bmp"
10	10	"11/19/2015"	"16:27:18"	"GunNeu"	"RightGun"	4	1	1	17	"BlackFace2.bmp"	1	"f"	"fast"	""	NA	"gripstrength.bmp"	0	335	NA	NA	"gripstrength.bmp"	"RunProc"	"TrialProc"	""	"ChunkList"	""	"BlackNeu"	""
10	10	"11/19/2015"	"16:27:18"	"GunNeu"	"RightGun"	4	1	1	18	""	1	"f"	"fast"	""	NA	"gripstrength.bmp"	1	463	NA	NA	"gripstrength.bmp"	"RunProc"	"TrialProc"	""	"ChunkList"	""	"WhiteNeu"	"whiteface2.bmp"
10	10	"11/19/2015"	"16:27:18"	"GunNeu"	"RightGun"	4	1	1	19	""	1	"f"	"slow"	""	NA	"giraffe.bmp"	1	502	NA	NA	"giraffe.bmp"	"RunProc"	"TrialProc"	""	"ChunkList"	""	"WhiteNeu"	"whiteface1.bmp"
10	10	"11/19/2015"	"16:27:18"	"GunNeu"	"RightGun"	4	1	1	20	"BlackFace2.bmp"	1	"f"	"fast"	""	NA	"banana.bmp"	1	429	NA	NA	"banana.bmp"	"RunProc"	"TrialProc"	""	"ChunkList"	""	"BlackNeu"	""
10	10	"11/19/2015"	"16:27:18"	"GunNeu"	"RightGun"	4	1	1	21	""	1	"j"	"fast"	"WEAPON4.bmp"	NA	""	1	404	NA	NA	"WEAPON4.bmp"	"RunProc"	"TrialProc"	""	"ChunkList"	""	"WhiteGun"	"whiteface3.bmp"
10	10	"11/19/2015"	"16:27:18"	"GunNeu"	"RightGun"	4	1	1	22	"BlackFace3.bmp"	1	"j"	"fast"	"WEAPON2.bmp"	NA	""	1	483	NA	NA	"WEAPON2.bmp"	"RunProc"	"TrialProc"	""	"ChunkList"	""	"BlackGun"	""
10	10	"11/19/2015"	"16:27:18"	"GunNeu"	"RightGun"	4	1	1	23	""	1	"f"	"fast"	""	NA	"absneut3.bmp"	1	442	NA	NA	"absneut3.bmp"	"RunProc"	"TrialProc"	""	"ChunkList"	""	"WhiteNeu"	"whiteface3.bmp"
10	10	"11/19/2015"	"16:27:18"	"GunNeu"	"RightGun"	4	1	1	24	"BlackFace4.bmp"	1	"f"	"slow"	""	NA	"banana.bmp"	0	0	NA	NA	"banana.bmp"	"RunProc"	"TrialProc"	""	"ChunkList"	""	"BlackNeu"	""
10	10	"11/19/2015"	"16:27:18"	"GunNeu"	"RightGun"	4	1	1	25	"BlackFace1.bmp"	1	"f"	"fast"	""	NA	"absneut3.bmp"	1	433	NA	NA	"absneut3.bmp"	"RunProc"	"TrialProc"	""	"ChunkList"	""	"BlackNeu"	""
10	10	"11/19/2015"	"16:27:18"	"GunNeu"	"RightGun"	4	1	1	26	""	1	"f"	"slow"	""	NA	"gripstrength.bmp"	0	0	NA	NA	"gripstrength.bmp"	"RunProc"	"TrialProc"	""	"ChunkList"	""	"WhiteNeu"	"whiteface2.bmp"
10	10	"11/19/2015"	"16:27:18"	"GunNeu"	"RightGun"	4	1	1	27	"BlackFace4.bmp"	1	"j"	"fast"	"WEAPON1.bmp"	NA	""	1	416	NA	NA	"WEAPON1.bmp"	"RunProc"	"TrialProc"	""	"ChunkList"	""	"BlackGun"	""
10	10	"11/19/2015"	"16:27:18"	"GunNeu"	"RightGun"	4	1	1	28	"BlackFace1.bmp"	1	"f"	"slow"	""	NA	"giraffe.bmp"	1	535	NA	NA	"giraffe.bmp"	"RunProc"	"TrialProc"	""	"ChunkList"	""	"BlackNeu"	""
10	10	"11/19/2015"	"16:27:18"	"GunNeu"	"RightGun"	4	1	1	29	""	1	"j"	"fast"	"WEAPON4.bmp"	NA	""	1	359	NA	NA	"WEAPON4.bmp"	"RunProc"	"TrialProc"	""	"ChunkList"	""	"WhiteGun"	"whiteface1.bmp"
10	10	"11/19/2015"	"16:27:18"	"GunNeu"	"RightGun"	4	1	1	30	"BlackFace2.bmp"	1	"f"	"fast"	""	NA	"absneut3.bmp"	1	374	NA	NA	"absneut3.bmp"	"RunProc"	"TrialProc"	""	"ChunkList"	""	"BlackNeu"	""
10	10	"11/19/2015"	"16:27:18"	"GunNeu"	"RightGun"	4	1	1	31	""	1	"j"	"fast"	"WEAPON2.bmp"	NA	""	0	325	NA	NA	"WEAPON2.bmp"	"RunProc"	"TrialProc"	""	"ChunkList"	""	"WhiteGun"	"whiteface4.bmp"
10	10	"11/19/2015"	"16:27:18"	"GunNeu"	"RightGun"	4	1	1	32	""	1	"j"	"fast"	"WEAPON3.bmp"	NA	""	1	365	NA	NA	"WEAPON3.bmp"	"RunProc"	"TrialProc"	""	"ChunkList"	""	"WhiteGun"	"whiteface1.bmp"
10	10	"11/19/2015"	"16:27:18"	"GunNeu"	"RightGun"	4	1	1	33	""	1	"j"	"fast"	"WEAPON1.bmp"	NA	""	1	388	NA	NA	"WEAPON1.bmp"	"RunProc"	"TrialProc"	""	"ChunkList"	""	"WhiteGun"	"whiteface3.bmp"
10	10	"11/19/2015"	"16:27:18"	"GunNeu"	"RightGun"	4	1	1	34	""	1	"j"	"fast"	"WEAPON4.bmp"	NA	""	1	380	NA	NA	"WEAPON4.bmp"	"RunProc"	"TrialProc"	""	"ChunkList"	""	"WhiteGun"	"whiteface2.bmp"
10	10	"11/19/2015"	"16:27:18"	"GunNeu"	"RightGun"	4	1	1	35	"BlackFace3.bmp"	1	"j"	"fast"	"WEAPON3.bmp"	NA	""	1	363	NA	NA	"WEAPON3.bmp"	"RunProc"	"TrialProc"	""	"ChunkList"	""	"BlackGun"	""
10	10	"11/19/2015"	"16:27:18"	"GunNeu"	"RightGun"	4	1	1	36	""	1	"j"	"fast"	"WEAPON2.bmp"	NA	""	1	362	NA	NA	"WEAPON2.bmp"	"RunProc"	"TrialProc"	""	"ChunkList"	""	"WhiteGun"	"whiteface4.bmp"
10	10	"11/19/2015"	"16:27:18"	"GunNeu"	"RightGun"	4	1	1	37	"BlackFace4.bmp"	1	"j"	"fast"	"WEAPON1.bmp"	NA	""	1	274	NA	NA	"WEAPON1.bmp"	"RunProc"	"TrialProc"	""	"ChunkList"	""	"BlackGun"	""
10	10	"11/19/2015"	"16:27:18"	"GunNeu"	"RightGun"	4	1	1	38	"BlackFace1.bmp"	1	"f"	"fast"	""	NA	"giraffe.bmp"	1	409	NA	NA	"giraffe.bmp"	"RunProc"	"TrialProc"	""	"ChunkList"	""	"BlackNeu"	""
10	10	"11/19/2015"	"16:27:18"	"GunNeu"	"RightGun"	4	1	1	39	"BlackFace2.bmp"	1	"f"	"fast"	""	NA	"gripstrength.bmp"	0	304	NA	NA	"gripstrength.bmp"	"RunProc"	"TrialProc"	""	"ChunkList"	""	"BlackNeu"	""
10	10	"11/19/2015"	"16:27:18"	"GunNeu"	"RightGun"	4	1	1	40	"BlackFace3.bmp"	1	"f"	"fast"	""	NA	"banana.bmp"	1	440	NA	NA	"banana.bmp"	"RunProc"	"TrialProc"	""	"ChunkList"	""	"BlackNeu"	""
10	10	"11/19/2015"	"16:27:18"	"GunNeu"	"RightGun"	4	1	1	41	""	1	"f"	"fast"	""	NA	"giraffe.bmp"	1	399	NA	NA	"giraffe.bmp"	"RunProc"	"TrialProc"	""	"ChunkList"	""	"WhiteNeu"	"whiteface3.bmp"
10	10	"11/19/2015"	"16:27:18"	"GunNeu"	"RightGun"	4	1	1	42	"BlackFace2.bmp"	1	"j"	"fast"	"WEAPON2.bmp"	NA	""	1	383	NA	NA	"WEAPON2.bmp"	"RunProc"	"TrialProc"	""	"ChunkList"	""	"BlackGun"	""
10	10	"11/19/2015"	"16:27:18"	"GunNeu"	"RightGun"	4	1	1	43	""	1	"j"	"fast"	"WEAPON1.bmp"	NA	""	1	358	NA	NA	"WEAPON1.bmp"	"RunProc"	"TrialProc"	""	"ChunkList"	""	"WhiteGun"	"whiteface4.bmp"
10	10	"11/19/2015"	"16:27:18"	"GunNeu"	"RightGun"	4	1	1	44	""	1	"f"	"fast"	""	NA	"absneut3.bmp"	1	357	NA	NA	"absneut3.bmp"	"RunProc"	"TrialProc"	""	"ChunkList"	""	"WhiteNeu"	"whiteface2.bmp"
10	10	"11/19/2015"	"16:27:18"	"GunNeu"	"RightGun"	4	1	1	45	"BlackFace3.bmp"	1	"f"	"fast"	""	NA	"gripstrength.bmp"	1	476	NA	NA	"gripstrength.bmp"	"RunProc"	"TrialProc"	""	"ChunkList"	""	"BlackNeu"	""
10	10	"11/19/2015"	"16:27:18"	"GunNeu"	"RightGun"	4	1	1	46	"BlackFace4.bmp"	1	"j"	"fast"	"WEAPON4.bmp"	NA	""	0	323	NA	NA	"WEAPON4.bmp"	"RunProc"	"TrialProc"	""	"ChunkList"	""	"BlackGun"	""
10	10	"11/19/2015"	"16:27:18"	"GunNeu"	"RightGun"	4	1	1	47	""	1	"f"	"fast"	""	NA	"banana.bmp"	1	410	NA	NA	"banana.bmp"	"RunProc"	"TrialProc"	""	"ChunkList"	""	"WhiteNeu"	"whiteface1.bmp"
10	10	"11/19/2015"	"16:27:18"	"GunNeu"	"RightGun"	4	1	1	48	""	1	"f"	"slow"	""	NA	"giraffe.bmp"	1	522	NA	NA	"giraffe.bmp"	"RunProc"	"TrialProc"	""	"ChunkList"	""	"WhiteNeu"	"whiteface1.bmp"
10	10	"11/19/2015"	"16:27:18"	"GunNeu"	"RightGun"	4	1	1	49	"BlackFace1.bmp"	1	"f"	"fast"	""	NA	"banana.bmp"	1	433	NA	NA	"banana.bmp"	"RunProc"	"TrialProc"	""	"ChunkList"	""	"BlackNeu"	""
10	10	"11/19/2015"	"16:27:18"	"GunNeu"	"RightGun"	4	1	1	50	"BlackFace2.bmp"	1	"f"	"fast"	""	NA	"gripstrength.bmp"	1	481	NA	NA	"gripstrength.bmp"	"RunProc"	"TrialProc"	""	"ChunkList"	""	"BlackNeu"	""
10	10	"11/19/2015"	"16:27:18"	"GunNeu"	"RightGun"	4	1	1	51	""	1	"j"	"fast"	"WEAPON3.bmp"	NA	""	1	328	NA	NA	"WEAPON3.bmp"	"RunProc"	"TrialProc"	""	"ChunkList"	""	"WhiteGun"	"whiteface4.bmp"
10	10	"11/19/2015"	"16:27:18"	"GunNeu"	"RightGun"	4	1	1	52	"BlackFace1.bmp"	1	"j"	"fast"	"WEAPON2.bmp"	NA	""	1	359	NA	NA	"WEAPON2.bmp"	"RunProc"	"TrialProc"	""	"ChunkList"	""	"BlackGun"	""
10	10	"11/19/2015"	"16:27:18"	"GunNeu"	"RightGun"	4	1	1	53	""	1	"f"	"fast"	""	NA	"absneut3.bmp"	1	343	NA	NA	"absneut3.bmp"	"RunProc"	"TrialProc"	""	"ChunkList"	""	"WhiteNeu"	"whiteface2.bmp"
10	10	"11/19/2015"	"16:27:18"	"GunNeu"	"RightGun"	4	1	1	54	"BlackFace4.bmp"	1	"j"	"fast"	"WEAPON3.bmp"	NA	""	1	446	NA	NA	"WEAPON3.bmp"	"RunProc"	"TrialProc"	""	"ChunkList"	""	"BlackGun"	""
10	10	"11/19/2015"	"16:27:18"	"GunNeu"	"RightGun"	4	1	1	55	"BlackFace3.bmp"	1	"f"	"fast"	""	NA	"absneut3.bmp"	1	381	NA	NA	"absneut3.bmp"	"RunProc"	"TrialProc"	""	"ChunkList"	""	"BlackNeu"	""
10	10	"11/19/2015"	"16:27:18"	"GunNeu"	"RightGun"	4	1	1	56	""	1	"j"	"fast"	"WEAPON4.bmp"	NA	""	1	341	NA	NA	"WEAPON4.bmp"	"RunProc"	"TrialProc"	""	"ChunkList"	""	"WhiteGun"	"whiteface3.bmp"
10	10	"11/19/2015"	"16:27:18"	"GunNeu"	"RightGun"	4	1	1	57	"BlackFace4.bmp"	1	"j"	"fast"	"WEAPON1.bmp"	NA	""	1	340	NA	NA	"WEAPON1.bmp"	"RunProc"	"TrialProc"	""	"ChunkList"	""	"BlackGun"	""
10	10	"11/19/2015"	"16:27:18"	"GunNeu"	"RightGun"	4	1	1	58	""	1	"f"	"fast"	""	NA	"banana.bmp"	1	388	NA	NA	"banana.bmp"	"RunProc"	"TrialProc"	""	"ChunkList"	""	"WhiteNeu"	"whiteface2.bmp"
10	10	"11/19/2015"	"16:27:18"	"GunNeu"	"RightGun"	4	1	1	59	"BlackFace2.bmp"	1	"j"	"fast"	"WEAPON2.bmp"	NA	""	1	283	NA	NA	"WEAPON2.bmp"	"RunProc"	"TrialProc"	""	"ChunkList"	""	"BlackGun"	""
10	10	"11/19/2015"	"16:27:18"	"GunNeu"	"RightGun"	4	1	1	60	""	1	"j"	"fast"	"WEAPON4.bmp"	NA	""	1	354	NA	NA	"WEAPON4.bmp"	"RunProc"	"TrialProc"	""	"ChunkList"	""	"WhiteGun"	"whiteface3.bmp"
10	10	"11/19/2015"	"16:27:18"	"GunNeu"	"RightGun"	4	1	1	62	""	3	"j"	"fast"	"WEAPON3.bmp"	NA	""	1	359	NA	NA	"WEAPON3.bmp"	"RunProc"	"TrialProc"	""	"ChunkList"	""	"WhiteGun"	"whiteface1.bmp"
10	10	"11/19/2015"	"16:27:18"	"GunNeu"	"RightGun"	4	1	1	63	""	3	"f"	"fast"	""	NA	"gripstrength.bmp"	0	311	NA	NA	"gripstrength.bmp"	"RunProc"	"TrialProc"	""	"ChunkList"	""	"WhiteNeu"	"whiteface4.bmp"
10	10	"11/19/2015"	"16:27:18"	"GunNeu"	"RightGun"	4	1	1	64	"BlackFace3.bmp"	3	"j"	"fast"	"WEAPON1.bmp"	NA	""	1	358	NA	NA	"WEAPON1.bmp"	"RunProc"	"TrialProc"	""	"ChunkList"	""	"BlackGun"	""
10	10	"11/19/2015"	"16:27:18"	"GunNeu"	"RightGun"	4	1	1	65	""	3	"j"	"fast"	"WEAPON3.bmp"	NA	""	1	365	NA	NA	"WEAPON3.bmp"	"RunProc"	"TrialProc"	""	"ChunkList"	""	"WhiteGun"	"whiteface2.bmp"
10	10	"11/19/2015"	"16:27:18"	"GunNeu"	"RightGun"	4	1	1	66	""	3	"j"	"fast"	"WEAPON1.bmp"	NA	""	1	324	NA	NA	"WEAPON1.bmp"	"RunProc"	"TrialProc"	""	"ChunkList"	""	"WhiteGun"	"whiteface3.bmp"
10	10	"11/19/2015"	"16:27:18"	"GunNeu"	"RightGun"	4	1	1	67	""	3	"j"	"fast"	"WEAPON4.bmp"	NA	""	1	379	NA	NA	"WEAPON4.bmp"	"RunProc"	"TrialProc"	""	"ChunkList"	""	"WhiteGun"	"whiteface1.bmp"
10	10	"11/19/2015"	"16:27:18"	"GunNeu"	"RightGun"	4	1	1	68	"BlackFace1.bmp"	3	"j"	"fast"	"WEAPON2.bmp"	NA	""	1	458	NA	NA	"WEAPON2.bmp"	"RunProc"	"TrialProc"	""	"ChunkList"	""	"BlackGun"	""
10	10	"11/19/2015"	"16:27:18"	"GunNeu"	"RightGun"	4	1	1	69	""	3	"j"	"fast"	"WEAPON2.bmp"	NA	""	1	354	NA	NA	"WEAPON2.bmp"	"RunProc"	"TrialProc"	""	"ChunkList"	""	"WhiteGun"	"whiteface4.bmp"
10	10	"11/19/2015"	"16:27:18"	"GunNeu"	"RightGun"	4	1	1	70	""	3	"f"	"fast"	""	NA	"giraffe.bmp"	1	441	NA	NA	"giraffe.bmp"	"RunProc"	"TrialProc"	""	"ChunkList"	""	"WhiteNeu"	"whiteface4.bmp"
10	10	"11/19/2015"	"16:27:18"	"GunNeu"	"RightGun"	4	1	1	71	"BlackFace2.bmp"	3	"j"	"fast"	"WEAPON4.bmp"	NA	""	1	313	NA	NA	"WEAPON4.bmp"	"RunProc"	"TrialProc"	""	"ChunkList"	""	"BlackGun"	""
10	10	"11/19/2015"	"16:27:18"	"GunNeu"	"RightGun"	4	1	1	72	""	3	"j"	"fast"	"WEAPON3.bmp"	NA	""	1	352	NA	NA	"WEAPON3.bmp"	"RunProc"	"TrialProc"	""	"ChunkList"	""	"WhiteGun"	"whiteface2.bmp"
10	10	"11/19/2015"	"16:27:18"	"GunNeu"	"RightGun"	4	1	1	73	"BlackFace1.bmp"	3	"j"	"fast"	"WEAPON1.bmp"	NA	""	1	295	NA	NA	"WEAPON1.bmp"	"RunProc"	"TrialProc"	""	"ChunkList"	""	"BlackGun"	""
10	10	"11/19/2015"	"16:27:18"	"GunNeu"	"RightGun"	4	1	1	74	"BlackFace4.bmp"	3	"f"	"fast"	""	NA	"absneut3.bmp"	1	399	NA	NA	"absneut3.bmp"	"RunProc"	"TrialProc"	""	"ChunkList"	""	"BlackNeu"	""
10	10	"11/19/2015"	"16:27:18"	"GunNeu"	"RightGun"	4	1	1	75	"BlackFace3.bmp"	3	"j"	"fast"	"WEAPON2.bmp"	NA	""	1	374	NA	NA	"WEAPON2.bmp"	"RunProc"	"TrialProc"	""	"ChunkList"	""	"BlackGun"	""
10	10	"11/19/2015"	"16:27:18"	"GunNeu"	"RightGun"	4	1	1	76	""	3	"j"	"slow"	"WEAPON4.bmp"	NA	""	1	573	NA	NA	"WEAPON4.bmp"	"RunProc"	"TrialProc"	""	"ChunkList"	""	"WhiteGun"	"whiteface3.bmp"
10	10	"11/19/2015"	"16:27:18"	"GunNeu"	"RightGun"	4	1	1	77	"BlackFace2.bmp"	3	"f"	"fast"	""	NA	"giraffe.bmp"	1	429	NA	NA	"giraffe.bmp"	"RunProc"	"TrialProc"	""	"ChunkList"	""	"BlackNeu"	""
10	10	"11/19/2015"	"16:27:18"	"GunNeu"	"RightGun"	4	1	1	78	"BlackFace1.bmp"	3	"j"	"fast"	"WEAPON3.bmp"	NA	""	1	348	NA	NA	"WEAPON3.bmp"	"RunProc"	"TrialProc"	""	"ChunkList"	""	"BlackGun"	""
10	10	"11/19/2015"	"16:27:18"	"GunNeu"	"RightGun"	4	1	1	79	"BlackFace4.bmp"	3	"j"	"fast"	"WEAPON1.bmp"	NA	""	1	348	NA	NA	"WEAPON1.bmp"	"RunProc"	"TrialProc"	""	"ChunkList"	""	"BlackGun"	""
10	10	"11/19/2015"	"16:27:18"	"GunNeu"	"RightGun"	4	1	1	80	""	3	"j"	"fast"	"WEAPON3.bmp"	NA	""	1	395	NA	NA	"WEAPON3.bmp"	"RunProc"	"TrialProc"	""	"ChunkList"	""	"WhiteGun"	"whiteface1.bmp"
10	10	"11/19/2015"	"16:27:18"	"GunNeu"	"RightGun"	4	1	1	81	"BlackFace3.bmp"	3	"j"	"fast"	"WEAPON1.bmp"	NA	""	1	338	NA	NA	"WEAPON1.bmp"	"RunProc"	"TrialProc"	""	"ChunkList"	""	"BlackGun"	""
10	10	"11/19/2015"	"16:27:18"	"GunNeu"	"RightGun"	4	1	1	82	""	3	"f"	"fast"	""	NA	"banana.bmp"	1	458	NA	NA	"banana.bmp"	"RunProc"	"TrialProc"	""	"ChunkList"	""	"WhiteNeu"	"whiteface2.bmp"
10	10	"11/19/2015"	"16:27:18"	"GunNeu"	"RightGun"	4	1	1	83	"BlackFace2.bmp"	3	"f"	"slow"	""	NA	"gripstrength.bmp"	1	561	NA	NA	"gripstrength.bmp"	"RunProc"	"TrialProc"	""	"ChunkList"	""	"BlackNeu"	""
10	10	"11/19/2015"	"16:27:18"	"GunNeu"	"RightGun"	4	1	1	84	"BlackFace3.bmp"	3	"f"	"fast"	""	NA	"absneut3.bmp"	1	480	NA	NA	"absneut3.bmp"	"RunProc"	"TrialProc"	""	"ChunkList"	""	"BlackNeu"	""
10	10	"11/19/2015"	"16:27:18"	"GunNeu"	"RightGun"	4	1	1	85	"BlackFace4.bmp"	3	"f"	"slow"	""	NA	"gripstrength.bmp"	1	520	NA	NA	"gripstrength.bmp"	"RunProc"	"TrialProc"	""	"ChunkList"	""	"BlackNeu"	""
10	10	"11/19/2015"	"16:27:18"	"GunNeu"	"RightGun"	4	1	1	86	""	3	"f"	"fast"	""	NA	"banana.bmp"	1	375	NA	NA	"banana.bmp"	"RunProc"	"TrialProc"	""	"ChunkList"	""	"WhiteNeu"	"whiteface3.bmp"
10	10	"11/19/2015"	"16:27:18"	"GunNeu"	"RightGun"	4	1	1	87	"BlackFace1.bmp"	3	"j"	"fast"	"WEAPON2.bmp"	NA	""	1	431	NA	NA	"WEAPON2.bmp"	"RunProc"	"TrialProc"	""	"ChunkList"	""	"BlackGun"	""
10	10	"11/19/2015"	"16:27:18"	"GunNeu"	"RightGun"	4	1	1	88	"BlackFace4.bmp"	3	"j"	"fast"	"WEAPON4.bmp"	NA	""	1	438	NA	NA	"WEAPON4.bmp"	"RunProc"	"TrialProc"	""	"ChunkList"	""	"BlackGun"	""
10	10	"11/19/2015"	"16:27:18"	"GunNeu"	"RightGun"	4	1	1	89	""	3	"f"	"fast"	""	NA	"giraffe.bmp"	1	461	NA	NA	"giraffe.bmp"	"RunProc"	"TrialProc"	""	"ChunkList"	""	"WhiteNeu"	"whiteface4.bmp"
10	10	"11/19/2015"	"16:27:18"	"GunNeu"	"RightGun"	4	1	1	90	""	3	"f"	"fast"	""	NA	"gripstrength.bmp"	0	436	NA	NA	"gripstrength.bmp"	"RunProc"	"TrialProc"	""	"ChunkList"	""	"WhiteNeu"	"whiteface1.bmp"
10	10	"11/19/2015"	"16:27:18"	"GunNeu"	"RightGun"	4	1	1	91	"BlackFace1.bmp"	3	"f"	"fast"	""	NA	"banana.bmp"	1	459	NA	NA	"banana.bmp"	"RunProc"	"TrialProc"	""	"ChunkList"	""	"BlackNeu"	""
10	10	"11/19/2015"	"16:27:18"	"GunNeu"	"RightGun"	4	1	1	92	"BlackFace2.bmp"	3	"j"	"fast"	"WEAPON2.bmp"	NA	""	1	394	NA	NA	"WEAPON2.bmp"	"RunProc"	"TrialProc"	""	"ChunkList"	""	"BlackGun"	""
10	10	"11/19/2015"	"16:27:18"	"GunNeu"	"RightGun"	4	1	1	93	"BlackFace3.bmp"	3	"j"	"fast"	"WEAPON3.bmp"	NA	""	1	402	NA	NA	"WEAPON3.bmp"	"RunProc"	"TrialProc"	""	"ChunkList"	""	"BlackGun"	""
10	10	"11/19/2015"	"16:27:18"	"GunNeu"	"RightGun"	4	1	1	94	"BlackFace1.bmp"	3	"j"	"fast"	"WEAPON1.bmp"	NA	""	1	337	NA	NA	"WEAPON1.bmp"	"RunProc"	"TrialProc"	""	"ChunkList"	""	"BlackGun"	""
10	10	"11/19/2015"	"16:27:18"	"GunNeu"	"RightGun"	4	1	1	95	""	3	"f"	"fast"	""	NA	"giraffe.bmp"	1	441	NA	NA	"giraffe.bmp"	"RunProc"	"TrialProc"	""	"ChunkList"	""	"WhiteNeu"	"whiteface3.bmp"
10	10	"11/19/2015"	"16:27:18"	"GunNeu"	"RightGun"	4	1	1	96	""	3	"f"	"fast"	""	NA	"absneut3.bmp"	1	448	NA	NA	"absneut3.bmp"	"RunProc"	"TrialProc"	""	"ChunkList"	""	"WhiteNeu"	"whiteface1.bmp"
10	10	"11/19/2015"	"16:27:18"	"GunNeu"	"RightGun"	4	1	1	97	""	3	"f"	"fast"	""	NA	"absneut3.bmp"	1	327	NA	NA	"absneut3.bmp"	"RunProc"	"TrialProc"	""	"ChunkList"	""	"WhiteNeu"	"whiteface4.bmp"
10	10	"11/19/2015"	"16:27:18"	"GunNeu"	"RightGun"	4	1	1	98	""	3	"j"	"fast"	"WEAPON4.bmp"	NA	""	1	463	NA	NA	"WEAPON4.bmp"	"RunProc"	"TrialProc"	""	"ChunkList"	""	"WhiteGun"	"whiteface2.bmp"
10	10	"11/19/2015"	"16:27:18"	"GunNeu"	"RightGun"	4	1	1	99	""	3	"j"	"fast"	"WEAPON1.bmp"	NA	""	1	374	NA	NA	"WEAPON1.bmp"	"RunProc"	"TrialProc"	""	"ChunkList"	""	"WhiteGun"	"whiteface2.bmp"
10	10	"11/19/2015"	"16:27:18"	"GunNeu"	"RightGun"	4	1	1	100	""	3	"j"	"fast"	"WEAPON3.bmp"	NA	""	0	301	NA	NA	"WEAPON3.bmp"	"RunProc"	"TrialProc"	""	"ChunkList"	""	"WhiteGun"	"whiteface1.bmp"
10	10	"11/19/2015"	"16:27:18"	"GunNeu"	"RightGun"	4	1	1	101	""	3	"f"	"slow"	""	NA	"gripstrength.bmp"	1	533	NA	NA	"gripstrength.bmp"	"RunProc"	"TrialProc"	""	"ChunkList"	""	"WhiteNeu"	"whiteface3.bmp"
10	10	"11/19/2015"	"16:27:18"	"GunNeu"	"RightGun"	4	1	1	102	""	3	"f"	"slow"	""	NA	"giraffe.bmp"	0	0	NA	NA	"giraffe.bmp"	"RunProc"	"TrialProc"	""	"ChunkList"	""	"WhiteNeu"	"whiteface4.bmp"
10	10	"11/19/2015"	"16:27:18"	"GunNeu"	"RightGun"	4	1	1	103	"BlackFace3.bmp"	3	"f"	"fast"	""	NA	"banana.bmp"	1	404	NA	NA	"banana.bmp"	"RunProc"	"TrialProc"	""	"ChunkList"	""	"BlackNeu"	""
10	10	"11/19/2015"	"16:27:18"	"GunNeu"	"RightGun"	4	1	1	104	"BlackFace2.bmp"	3	"f"	"slow"	""	NA	"absneut3.bmp"	1	611	NA	NA	"absneut3.bmp"	"RunProc"	"TrialProc"	""	"ChunkList"	""	"BlackNeu"	""
10	10	"11/19/2015"	"16:27:18"	"GunNeu"	"RightGun"	4	1	1	105	""	3	"f"	"fast"	""	NA	"banana.bmp"	1	378	NA	NA	"banana.bmp"	"RunProc"	"TrialProc"	""	"ChunkList"	""	"WhiteNeu"	"whiteface3.bmp"
10	10	"11/19/2015"	"16:27:18"	"GunNeu"	"RightGun"	4	1	1	106	""	3	"f"	"slow"	""	NA	"gripstrength.bmp"	1	506	NA	NA	"gripstrength.bmp"	"RunProc"	"TrialProc"	""	"ChunkList"	""	"WhiteNeu"	"whiteface4.bmp"
10	10	"11/19/2015"	"16:27:18"	"GunNeu"	"RightGun"	4	1	1	107	""	3	"f"	"fast"	""	NA	"giraffe.bmp"	1	441	NA	NA	"giraffe.bmp"	"RunProc"	"TrialProc"	""	"ChunkList"	""	"WhiteNeu"	"whiteface1.bmp"
10	10	"11/19/2015"	"16:27:18"	"GunNeu"	"RightGun"	4	1	1	108	"BlackFace4.bmp"	3	"j"	"fast"	"WEAPON4.bmp"	NA	""	1	312	NA	NA	"WEAPON4.bmp"	"RunProc"	"TrialProc"	""	"ChunkList"	""	"BlackGun"	""
10	10	"11/19/2015"	"16:27:18"	"GunNeu"	"RightGun"	4	1	1	109	""	3	"j"	"fast"	"WEAPON2.bmp"	NA	""	1	376	NA	NA	"WEAPON2.bmp"	"RunProc"	"TrialProc"	""	"ChunkList"	""	"WhiteGun"	"whiteface2.bmp"
10	10	"11/19/2015"	"16:27:18"	"GunNeu"	"RightGun"	4	1	1	110	"BlackFace1.bmp"	3	"f"	"slow"	""	NA	"absneut3.bmp"	1	551	NA	NA	"absneut3.bmp"	"RunProc"	"TrialProc"	""	"ChunkList"	""	"BlackNeu"	""
10	10	"11/19/2015"	"16:27:18"	"GunNeu"	"RightGun"	4	1	1	111	"BlackFace4.bmp"	3	"j"	"fast"	"WEAPON4.bmp"	NA	""	1	375	NA	NA	"WEAPON4.bmp"	"RunProc"	"TrialProc"	""	"ChunkList"	""	"BlackGun"	""
10	10	"11/19/2015"	"16:27:18"	"GunNeu"	"RightGun"	4	1	1	112	""	3	"j"	"fast"	"WEAPON3.bmp"	NA	""	1	486	NA	NA	"WEAPON3.bmp"	"RunProc"	"TrialProc"	""	"ChunkList"	""	"WhiteGun"	"whiteface2.bmp"
10	10	"11/19/2015"	"16:27:18"	"GunNeu"	"RightGun"	4	1	1	113	"BlackFace3.bmp"	3	"f"	"fast"	""	NA	"giraffe.bmp"	1	421	NA	NA	"giraffe.bmp"	"RunProc"	"TrialProc"	""	"ChunkList"	""	"BlackNeu"	""
10	10	"11/19/2015"	"16:27:18"	"GunNeu"	"RightGun"	4	1	1	114	"BlackFace2.bmp"	3	"f"	"slow"	""	NA	"banana.bmp"	1	502	NA	NA	"banana.bmp"	"RunProc"	"TrialProc"	""	"ChunkList"	""	"BlackNeu"	""
10	10	"11/19/2015"	"16:27:18"	"GunNeu"	"RightGun"	4	1	1	115	""	3	"j"	"fast"	"WEAPON2.bmp"	NA	""	1	395	NA	NA	"WEAPON2.bmp"	"RunProc"	"TrialProc"	""	"ChunkList"	""	"WhiteGun"	"whiteface3.bmp"
10	10	"11/19/2015"	"16:27:18"	"GunNeu"	"RightGun"	4	1	1	116	""	3	"j"	"fast"	"WEAPON1.bmp"	NA	""	1	298	NA	NA	"WEAPON1.bmp"	"RunProc"	"TrialProc"	""	"ChunkList"	""	"WhiteGun"	"whiteface1.bmp"
10	10	"11/19/2015"	"16:27:18"	"GunNeu"	"RightGun"	4	1	1	117	"BlackFace4.bmp"	3	"f"	"fast"	""	NA	"gripstrength.bmp"	1	458	NA	NA	"gripstrength.bmp"	"RunProc"	"TrialProc"	""	"ChunkList"	""	"BlackNeu"	""
10	10	"11/19/2015"	"16:27:18"	"GunNeu"	"RightGun"	4	1	1	118	"BlackFace1.bmp"	3	"f"	"fast"	""	NA	"absneut3.bmp"	1	473	NA	NA	"absneut3.bmp"	"RunProc"	"TrialProc"	""	"ChunkList"	""	"BlackNeu"	""
10	10	"11/19/2015"	"16:27:18"	"GunNeu"	"RightGun"	4	1	1	119	"BlackFace2.bmp"	3	"f"	"fast"	""	NA	"gripstrength.bmp"	0	329	NA	NA	"gripstrength.bmp"	"RunProc"	"TrialProc"	""	"ChunkList"	""	"BlackNeu"	""
10	10	"11/19/2015"	"16:27:18"	"GunNeu"	"RightGun"	4	1	1	120	""	3	"f"	"fast"	""	NA	"banana.bmp"	1	424	NA	NA	"banana.bmp"	"RunProc"	"TrialProc"	""	"ChunkList"	""	"WhiteNeu"	"whiteface4.bmp"
10	10	"11/19/2015"	"16:27:18"	"GunNeu"	"RightGun"	4	1	1	121	"BlackFace3.bmp"	3	"f"	"fast"	""	NA	"giraffe.bmp"	1	399	NA	NA	"giraffe.bmp"	"RunProc"	"TrialProc"	""	"ChunkList"	""	"BlackNeu"	""
10	10	"11/19/2015"	"16:27:18"	"GunNeu"	"RightGun"	4	1	1	123	"BlackFace4.bmp"	5	"f"	"slow"	""	NA	"banana.bmp"	1	546	NA	NA	"banana.bmp"	"RunProc"	"TrialProc"	""	"ChunkList"	""	"BlackNeu"	""
10	10	"11/19/2015"	"16:27:18"	"GunNeu"	"RightGun"	4	1	1	124	""	5	"f"	"slow"	""	NA	"absneut3.bmp"	0	0	NA	NA	"absneut3.bmp"	"RunProc"	"TrialProc"	""	"ChunkList"	""	"WhiteNeu"	"whiteface3.bmp"
10	10	"11/19/2015"	"16:27:18"	"GunNeu"	"RightGun"	4	1	1	125	""	5	"f"	"slow"	""	NA	"gripstrength.bmp"	1	512	NA	NA	"gripstrength.bmp"	"RunProc"	"TrialProc"	""	"ChunkList"	""	"WhiteNeu"	"whiteface1.bmp"
10	10	"11/19/2015"	"16:27:18"	"GunNeu"	"RightGun"	4	1	1	126	"BlackFace1.bmp"	5	"j"	"fast"	"WEAPON2.bmp"	NA	""	1	392	NA	NA	"WEAPON2.bmp"	"RunProc"	"TrialProc"	""	"ChunkList"	""	"BlackGun"	""
10	10	"11/19/2015"	"16:27:18"	"GunNeu"	"RightGun"	4	1	1	127	""	5	"f"	"slow"	""	NA	"giraffe.bmp"	1	791	NA	NA	"giraffe.bmp"	"RunProc"	"TrialProc"	""	"ChunkList"	""	"WhiteNeu"	"whiteface4.bmp"
10	10	"11/19/2015"	"16:27:18"	"GunNeu"	"RightGun"	4	1	1	128	"BlackFace2.bmp"	5	"f"	"slow"	""	NA	"gripstrength.bmp"	1	727	NA	NA	"gripstrength.bmp"	"RunProc"	"TrialProc"	""	"ChunkList"	""	"BlackNeu"	""
10	10	"11/19/2015"	"16:27:18"	"GunNeu"	"RightGun"	4	1	1	129	"BlackFace3.bmp"	5	"f"	"fast"	""	NA	"giraffe.bmp"	1	374	NA	NA	"giraffe.bmp"	"RunProc"	"TrialProc"	""	"ChunkList"	""	"BlackNeu"	""
10	10	"11/19/2015"	"16:27:18"	"GunNeu"	"RightGun"	4	1	1	130	""	5	"f"	"slow"	""	NA	"banana.bmp"	1	541	NA	NA	"banana.bmp"	"RunProc"	"TrialProc"	""	"ChunkList"	""	"WhiteNeu"	"whiteface2.bmp"
10	10	"11/19/2015"	"16:27:18"	"GunNeu"	"RightGun"	4	1	1	131	""	5	"j"	"fast"	"WEAPON3.bmp"	NA	""	0	245	NA	NA	"WEAPON3.bmp"	"RunProc"	"TrialProc"	""	"ChunkList"	""	"WhiteGun"	"whiteface4.bmp"
10	10	"11/19/2015"	"16:27:18"	"GunNeu"	"RightGun"	4	1	1	132	"BlackFace1.bmp"	5	"j"	"fast"	"WEAPON1.bmp"	NA	""	1	451	NA	NA	"WEAPON1.bmp"	"RunProc"	"TrialProc"	""	"ChunkList"	""	"BlackGun"	""
10	10	"11/19/2015"	"16:27:18"	"GunNeu"	"RightGun"	4	1	1	133	""	5	"j"	"fast"	"WEAPON4.bmp"	NA	""	1	426	NA	NA	"WEAPON4.bmp"	"RunProc"	"TrialProc"	""	"ChunkList"	""	"WhiteGun"	"whiteface2.bmp"
10	10	"11/19/2015"	"16:27:18"	"GunNeu"	"RightGun"	4	1	1	134	"BlackFace4.bmp"	5	"f"	"fast"	""	NA	"absneut3.bmp"	1	354	NA	NA	"absneut3.bmp"	"RunProc"	"TrialProc"	""	"ChunkList"	""	"BlackNeu"	""
10	10	"11/19/2015"	"16:27:18"	"GunNeu"	"RightGun"	4	1	1	135	"BlackFace2.bmp"	5	"j"	"fast"	"WEAPON3.bmp"	NA	""	0	337	NA	NA	"WEAPON3.bmp"	"RunProc"	"TrialProc"	""	"ChunkList"	""	"BlackGun"	""
10	10	"11/19/2015"	"16:27:18"	"GunNeu"	"RightGun"	4	1	1	136	""	5	"f"	"fast"	""	NA	"banana.bmp"	0	377	NA	NA	"banana.bmp"	"RunProc"	"TrialProc"	""	"ChunkList"	""	"WhiteNeu"	"whiteface1.bmp"
10	10	"11/19/2015"	"16:27:18"	"GunNeu"	"RightGun"	4	1	1	137	"BlackFace3.bmp"	5	"j"	"fast"	"WEAPON2.bmp"	NA	""	1	408	NA	NA	"WEAPON2.bmp"	"RunProc"	"TrialProc"	""	"ChunkList"	""	"BlackGun"	""
10	10	"11/19/2015"	"16:27:18"	"GunNeu"	"RightGun"	4	1	1	138	"BlackFace2.bmp"	5	"j"	"fast"	"WEAPON4.bmp"	NA	""	1	343	NA	NA	"WEAPON4.bmp"	"RunProc"	"TrialProc"	""	"ChunkList"	""	"BlackGun"	""
10	10	"11/19/2015"	"16:27:18"	"GunNeu"	"RightGun"	4	1	1	139	"BlackFace3.bmp"	5	"f"	"fast"	""	NA	"absneut3.bmp"	1	431	NA	NA	"absneut3.bmp"	"RunProc"	"TrialProc"	""	"ChunkList"	""	"BlackNeu"	""
10	10	"11/19/2015"	"16:27:18"	"GunNeu"	"RightGun"	4	1	1	140	""	5	"f"	"slow"	""	NA	"gripstrength.bmp"	1	574	NA	NA	"gripstrength.bmp"	"RunProc"	"TrialProc"	""	"ChunkList"	""	"WhiteNeu"	"whiteface3.bmp"
10	10	"11/19/2015"	"16:27:18"	"GunNeu"	"RightGun"	4	1	1	141	"BlackFace1.bmp"	5	"f"	"fast"	""	NA	"giraffe.bmp"	1	469	NA	NA	"giraffe.bmp"	"RunProc"	"TrialProc"	""	"ChunkList"	""	"BlackNeu"	""
10	10	"11/19/2015"	"16:27:18"	"GunNeu"	"RightGun"	4	1	1	142	"BlackFace4.bmp"	5	"f"	"fast"	""	NA	"absneut3.bmp"	1	469	NA	NA	"absneut3.bmp"	"RunProc"	"TrialProc"	""	"ChunkList"	""	"BlackNeu"	""
10	10	"11/19/2015"	"16:27:18"	"GunNeu"	"RightGun"	4	1	1	143	""	5	"f"	"fast"	""	NA	"banana.bmp"	1	372	NA	NA	"banana.bmp"	"RunProc"	"TrialProc"	""	"ChunkList"	""	"WhiteNeu"	"whiteface3.bmp"
10	10	"11/19/2015"	"16:27:18"	"GunNeu"	"RightGun"	4	1	1	144	"BlackFace1.bmp"	5	"f"	"fast"	""	NA	"giraffe.bmp"	0	363	NA	NA	"giraffe.bmp"	"RunProc"	"TrialProc"	""	"ChunkList"	""	"BlackNeu"	""
10	10	"11/19/2015"	"16:27:18"	"GunNeu"	"RightGun"	4	1	1	145	""	5	"j"	"fast"	"WEAPON1.bmp"	NA	""	1	402	NA	NA	"WEAPON1.bmp"	"RunProc"	"TrialProc"	""	"ChunkList"	""	"WhiteGun"	"whiteface1.bmp"
10	10	"11/19/2015"	"16:27:18"	"GunNeu"	"RightGun"	4	1	1	146	""	5	"f"	"slow"	""	NA	"gripstrength.bmp"	0	506	NA	NA	"gripstrength.bmp"	"RunProc"	"TrialProc"	""	"ChunkList"	""	"WhiteNeu"	"whiteface2.bmp"
10	10	"11/19/2015"	"16:27:18"	"GunNeu"	"RightGun"	4	1	1	147	""	5	"j"	"fast"	"WEAPON2.bmp"	NA	""	1	321	NA	NA	"WEAPON2.bmp"	"RunProc"	"TrialProc"	""	"ChunkList"	""	"WhiteGun"	"whiteface4.bmp"
10	10	"11/19/2015"	"16:27:18"	"GunNeu"	"RightGun"	4	1	1	148	"BlackFace3.bmp"	5	"j"	"fast"	"WEAPON1.bmp"	NA	""	1	312	NA	NA	"WEAPON1.bmp"	"RunProc"	"TrialProc"	""	"ChunkList"	""	"BlackGun"	""
10	10	"11/19/2015"	"16:27:18"	"GunNeu"	"RightGun"	4	1	1	149	"BlackFace2.bmp"	5	"f"	"fast"	""	NA	"gripstrength.bmp"	0	232	NA	NA	"gripstrength.bmp"	"RunProc"	"TrialProc"	""	"ChunkList"	""	"BlackNeu"	""
10	10	"11/19/2015"	"16:27:18"	"GunNeu"	"RightGun"	4	1	1	150	""	5	"f"	"fast"	""	NA	"banana.bmp"	0	151	NA	NA	"banana.bmp"	"RunProc"	"TrialProc"	""	"ChunkList"	""	"WhiteNeu"	"whiteface3.bmp"
10	10	"11/19/2015"	"16:27:18"	"GunNeu"	"RightGun"	4	1	1	151	""	5	"j"	"fast"	"WEAPON3.bmp"	NA	""	1	462	NA	NA	"WEAPON3.bmp"	"RunProc"	"TrialProc"	""	"ChunkList"	""	"WhiteGun"	"whiteface4.bmp"
10	10	"11/19/2015"	"16:27:18"	"GunNeu"	"RightGun"	4	1	1	152	""	5	"f"	"fast"	""	NA	"giraffe.bmp"	1	405	NA	NA	"giraffe.bmp"	"RunProc"	"TrialProc"	""	"ChunkList"	""	"WhiteNeu"	"whiteface2.bmp"
10	10	"11/19/2015"	"16:27:18"	"GunNeu"	"RightGun"	4	1	1	153	"BlackFace4.bmp"	5	"j"	"fast"	"WEAPON4.bmp"	NA	""	1	277	NA	NA	"WEAPON4.bmp"	"RunProc"	"TrialProc"	""	"ChunkList"	""	"BlackGun"	""
10	10	"11/19/2015"	"16:27:18"	"GunNeu"	"RightGun"	4	1	1	154	""	5	"j"	"fast"	"WEAPON2.bmp"	NA	""	1	444	NA	NA	"WEAPON2.bmp"	"RunProc"	"TrialProc"	""	"ChunkList"	""	"WhiteGun"	"whiteface1.bmp"
10	10	"11/19/2015"	"16:27:18"	"GunNeu"	"RightGun"	4	1	1	155	"BlackFace4.bmp"	5	"j"	"slow"	"WEAPON4.bmp"	NA	""	0	0	NA	NA	"WEAPON4.bmp"	"RunProc"	"TrialProc"	""	"ChunkList"	""	"BlackGun"	""
10	10	"11/19/2015"	"16:27:18"	"GunNeu"	"RightGun"	4	1	1	156	"BlackFace1.bmp"	5	"j"	"fast"	"WEAPON3.bmp"	NA	""	1	347	NA	NA	"WEAPON3.bmp"	"RunProc"	"TrialProc"	""	"ChunkList"	""	"BlackGun"	""
10	10	"11/19/2015"	"16:27:18"	"GunNeu"	"RightGun"	4	1	1	157	""	5	"f"	"fast"	""	NA	"absneut3.bmp"	1	361	NA	NA	"absneut3.bmp"	"RunProc"	"TrialProc"	""	"ChunkList"	""	"WhiteNeu"	"whiteface2.bmp"
10	10	"11/19/2015"	"16:27:18"	"GunNeu"	"RightGun"	4	1	1	158	""	5	"f"	"fast"	""	NA	"absneut3.bmp"	1	272	NA	NA	"absneut3.bmp"	"RunProc"	"TrialProc"	""	"ChunkList"	""	"WhiteNeu"	"whiteface1.bmp"
10	10	"11/19/2015"	"16:27:18"	"GunNeu"	"RightGun"	4	1	1	159	"BlackFace2.bmp"	5	"j"	"fast"	"WEAPON1.bmp"	NA	""	0	208	NA	NA	"WEAPON1.bmp"	"RunProc"	"TrialProc"	""	"ChunkList"	""	"BlackGun"	""
10	10	"11/19/2015"	"16:27:18"	"GunNeu"	"RightGun"	4	1	1	160	""	5	"f"	"fast"	""	NA	"banana.bmp"	1	215	NA	NA	"banana.bmp"	"RunProc"	"TrialProc"	""	"ChunkList"	""	"WhiteNeu"	"whiteface3.bmp"
10	10	"11/19/2015"	"16:27:18"	"GunNeu"	"RightGun"	4	1	1	161	"BlackFace3.bmp"	5	"j"	"fast"	"WEAPON2.bmp"	NA	""	1	295	NA	NA	"WEAPON2.bmp"	"RunProc"	"TrialProc"	""	"ChunkList"	""	"BlackGun"	""
10	10	"11/19/2015"	"16:27:18"	"GunNeu"	"RightGun"	4	1	1	162	"BlackFace2.bmp"	5	"j"	"fast"	"WEAPON1.bmp"	NA	""	1	342	NA	NA	"WEAPON1.bmp"	"RunProc"	"TrialProc"	""	"ChunkList"	""	"BlackGun"	""
10	10	"11/19/2015"	"16:27:18"	"GunNeu"	"RightGun"	4	1	1	163	""	5	"j"	"fast"	"WEAPON3.bmp"	NA	""	0	325	NA	NA	"WEAPON3.bmp"	"RunProc"	"TrialProc"	""	"ChunkList"	""	"WhiteGun"	"whiteface4.bmp"
10	10	"11/19/2015"	"16:27:18"	"GunNeu"	"RightGun"	4	1	1	164	"BlackFace4.bmp"	5	"j"	"fast"	"WEAPON4.bmp"	NA	""	1	333	NA	NA	"WEAPON4.bmp"	"RunProc"	"TrialProc"	""	"ChunkList"	""	"BlackGun"	""
10	10	"11/19/2015"	"16:27:18"	"GunNeu"	"RightGun"	4	1	1	165	""	5	"j"	"fast"	"WEAPON3.bmp"	NA	""	1	396	NA	NA	"WEAPON3.bmp"	"RunProc"	"TrialProc"	""	"ChunkList"	""	"WhiteGun"	"whiteface4.bmp"
10	10	"11/19/2015"	"16:27:18"	"GunNeu"	"RightGun"	4	1	1	166	"BlackFace1.bmp"	5	"f"	"fast"	""	NA	"giraffe.bmp"	1	467	NA	NA	"giraffe.bmp"	"RunProc"	"TrialProc"	""	"ChunkList"	""	"BlackNeu"	""
10	10	"11/19/2015"	"16:27:18"	"GunNeu"	"RightGun"	4	1	1	167	"BlackFace3.bmp"	5	"f"	"fast"	""	NA	"gripstrength.bmp"	0	379	NA	NA	"gripstrength.bmp"	"RunProc"	"TrialProc"	""	"ChunkList"	""	"BlackNeu"	""
10	10	"11/19/2015"	"16:27:18"	"GunNeu"	"RightGun"	4	1	1	168	"BlackFace2.bmp"	5	"f"	"fast"	""	NA	"absneut3.bmp"	1	410	NA	NA	"absneut3.bmp"	"RunProc"	"TrialProc"	""	"ChunkList"	""	"BlackNeu"	""
10	10	"11/19/2015"	"16:27:18"	"GunNeu"	"RightGun"	4	1	1	169	"BlackFace4.bmp"	5	"f"	"slow"	""	NA	"gripstrength.bmp"	1	618	NA	NA	"gripstrength.bmp"	"RunProc"	"TrialProc"	""	"ChunkList"	""	"BlackNeu"	""
10	10	"11/19/2015"	"16:27:18"	"GunNeu"	"RightGun"	4	1	1	170	""	5	"f"	"slow"	""	NA	"banana.bmp"	0	0	NA	NA	"banana.bmp"	"RunProc"	"TrialProc"	""	"ChunkList"	""	"WhiteNeu"	"whiteface3.bmp"
10	10	"11/19/2015"	"16:27:18"	"GunNeu"	"RightGun"	4	1	1	171	"BlackFace1.bmp"	5	"f"	"fast"	""	NA	"giraffe.bmp"	1	272	NA	NA	"giraffe.bmp"	"RunProc"	"TrialProc"	""	"ChunkList"	""	"BlackNeu"	""
10	10	"11/19/2015"	"16:27:18"	"GunNeu"	"RightGun"	4	1	1	172	"BlackFace3.bmp"	5	"j"	"fast"	"WEAPON4.bmp"	NA	""	1	400	NA	NA	"WEAPON4.bmp"	"RunProc"	"TrialProc"	""	"ChunkList"	""	"BlackGun"	""
10	10	"11/19/2015"	"16:27:18"	"GunNeu"	"RightGun"	4	1	1	173	""	5	"f"	"fast"	""	NA	"gripstrength.bmp"	0	359	NA	NA	"gripstrength.bmp"	"RunProc"	"TrialProc"	""	"ChunkList"	""	"WhiteNeu"	"whiteface2.bmp"
10	10	"11/19/2015"	"16:27:18"	"GunNeu"	"RightGun"	4	1	1	174	""	5	"j"	"fast"	"WEAPON1.bmp"	NA	""	1	406	NA	NA	"WEAPON1.bmp"	"RunProc"	"TrialProc"	""	"ChunkList"	""	"WhiteGun"	"whiteface1.bmp"
10	10	"11/19/2015"	"16:27:18"	"GunNeu"	"RightGun"	4	1	1	175	"BlackFace4.bmp"	5	"f"	"fast"	""	NA	"giraffe.bmp"	1	462	NA	NA	"giraffe.bmp"	"RunProc"	"TrialProc"	""	"ChunkList"	""	"BlackNeu"	""
10	10	"11/19/2015"	"16:27:18"	"GunNeu"	"RightGun"	4	1	1	176	""	5	"j"	"fast"	"WEAPON2.bmp"	NA	""	1	437	NA	NA	"WEAPON2.bmp"	"RunProc"	"TrialProc"	""	"ChunkList"	""	"WhiteGun"	"whiteface3.bmp"
10	10	"11/19/2015"	"16:27:18"	"GunNeu"	"RightGun"	4	1	1	177	""	5	"j"	"fast"	"WEAPON4.bmp"	NA	""	0	453	NA	NA	"WEAPON4.bmp"	"RunProc"	"TrialProc"	""	"ChunkList"	""	"WhiteGun"	"whiteface2.bmp"
10	10	"11/19/2015"	"16:27:18"	"GunNeu"	"RightGun"	4	1	1	178	""	5	"j"	"fast"	"WEAPON3.bmp"	NA	""	1	388	NA	NA	"WEAPON3.bmp"	"RunProc"	"TrialProc"	""	"ChunkList"	""	"WhiteGun"	"whiteface4.bmp"
10	10	"11/19/2015"	"16:27:18"	"GunNeu"	"RightGun"	4	1	1	179	""	5	"j"	"fast"	"WEAPON2.bmp"	NA	""	1	395	NA	NA	"WEAPON2.bmp"	"RunProc"	"TrialProc"	""	"ChunkList"	""	"WhiteGun"	"whiteface1.bmp"
10	10	"11/19/2015"	"16:27:18"	"GunNeu"	"RightGun"	4	1	1	180	""	5	"j"	"fast"	"WEAPON1.bmp"	NA	""	1	458	NA	NA	"WEAPON1.bmp"	"RunProc"	"TrialProc"	""	"ChunkList"	""	"WhiteGun"	"whiteface4.bmp"
10	10	"11/19/2015"	"16:27:18"	"GunNeu"	"RightGun"	4	1	1	181	"BlackFace3.bmp"	5	"j"	"fast"	"WEAPON3.bmp"	NA	""	1	385	NA	NA	"WEAPON3.bmp"	"RunProc"	"TrialProc"	""	"ChunkList"	""	"BlackGun"	""
10	10	"11/19/2015"	"16:27:18"	"GunNeu"	"RightGun"	4	1	1	182	""	5	"j"	"fast"	"WEAPON4.bmp"	NA	""	1	336	NA	NA	"WEAPON4.bmp"	"RunProc"	"TrialProc"	""	"ChunkList"	""	"WhiteGun"	"whiteface2.bmp"
10	10	"11/19/2015"	"16:27:18"	"GunNeu"	"RightGun"	4	1	1	184	"BlackFace2.bmp"	7	"f"	"fast"	""	NA	"absneut3.bmp"	1	420	NA	NA	"absneut3.bmp"	"RunProc"	"TrialProc"	""	"ChunkList"	""	"BlackNeu"	""
10	10	"11/19/2015"	"16:27:18"	"GunNeu"	"RightGun"	4	1	1	185	""	7	"j"	"fast"	"WEAPON1.bmp"	NA	""	0	251	NA	NA	"WEAPON1.bmp"	"RunProc"	"TrialProc"	""	"ChunkList"	""	"WhiteGun"	"whiteface3.bmp"
10	10	"11/19/2015"	"16:27:18"	"GunNeu"	"RightGun"	4	1	1	186	"BlackFace1.bmp"	7	"j"	"fast"	"WEAPON2.bmp"	NA	""	1	315	NA	NA	"WEAPON2.bmp"	"RunProc"	"TrialProc"	""	"ChunkList"	""	"BlackGun"	""
10	10	"11/19/2015"	"16:27:18"	"GunNeu"	"RightGun"	4	1	1	187	"BlackFace3.bmp"	7	"f"	"fast"	""	NA	"banana.bmp"	1	458	NA	NA	"banana.bmp"	"RunProc"	"TrialProc"	""	"ChunkList"	""	"BlackNeu"	""
10	10	"11/19/2015"	"16:27:18"	"GunNeu"	"RightGun"	4	1	1	188	""	7	"f"	"fast"	""	NA	"banana.bmp"	1	361	NA	NA	"banana.bmp"	"RunProc"	"TrialProc"	""	"ChunkList"	""	"WhiteNeu"	"whiteface1.bmp"
10	10	"11/19/2015"	"16:27:18"	"GunNeu"	"RightGun"	4	1	1	189	"BlackFace4.bmp"	7	"f"	"fast"	""	NA	"gripstrength.bmp"	0	353	NA	NA	"gripstrength.bmp"	"RunProc"	"TrialProc"	""	"ChunkList"	""	"BlackNeu"	""
10	10	"11/19/2015"	"16:27:18"	"GunNeu"	"RightGun"	4	1	1	190	""	7	"f"	"fast"	""	NA	"giraffe.bmp"	1	384	NA	NA	"giraffe.bmp"	"RunProc"	"TrialProc"	""	"ChunkList"	""	"WhiteNeu"	"whiteface3.bmp"
10	10	"11/19/2015"	"16:27:18"	"GunNeu"	"RightGun"	4	1	1	191	""	7	"f"	"fast"	""	NA	"absneut3.bmp"	1	415	NA	NA	"absneut3.bmp"	"RunProc"	"TrialProc"	""	"ChunkList"	""	"WhiteNeu"	"whiteface2.bmp"
10	10	"11/19/2015"	"16:27:18"	"GunNeu"	"RightGun"	4	1	1	192	""	7	"j"	"fast"	"WEAPON4.bmp"	NA	""	1	415	NA	NA	"WEAPON4.bmp"	"RunProc"	"TrialProc"	""	"ChunkList"	""	"WhiteGun"	"whiteface1.bmp"
10	10	"11/19/2015"	"16:27:18"	"GunNeu"	"RightGun"	4	1	1	193	"BlackFace2.bmp"	7	"j"	"fast"	"WEAPON3.bmp"	NA	""	1	382	NA	NA	"WEAPON3.bmp"	"RunProc"	"TrialProc"	""	"ChunkList"	""	"BlackGun"	""
10	10	"11/19/2015"	"16:27:18"	"GunNeu"	"RightGun"	4	1	1	194	""	7	"j"	"fast"	"WEAPON1.bmp"	NA	""	1	358	NA	NA	"WEAPON1.bmp"	"RunProc"	"TrialProc"	""	"ChunkList"	""	"WhiteGun"	"whiteface4.bmp"
10	10	"11/19/2015"	"16:27:18"	"GunNeu"	"RightGun"	4	1	1	195	"BlackFace1.bmp"	7	"j"	"fast"	"WEAPON2.bmp"	NA	""	1	413	NA	NA	"WEAPON2.bmp"	"RunProc"	"TrialProc"	""	"ChunkList"	""	"BlackGun"	""
10	10	"11/19/2015"	"16:27:18"	"GunNeu"	"RightGun"	4	1	1	196	""	7	"j"	"fast"	"WEAPON2.bmp"	NA	""	1	388	NA	NA	"WEAPON2.bmp"	"RunProc"	"TrialProc"	""	"ChunkList"	""	"WhiteGun"	"whiteface4.bmp"
10	10	"11/19/2015"	"16:27:18"	"GunNeu"	"RightGun"	4	1	1	197	""	7	"f"	"fast"	""	NA	"absneut3.bmp"	1	444	NA	NA	"absneut3.bmp"	"RunProc"	"TrialProc"	""	"ChunkList"	""	"WhiteNeu"	"whiteface2.bmp"
10	10	"11/19/2015"	"16:27:18"	"GunNeu"	"RightGun"	4	1	1	198	"BlackFace3.bmp"	7	"f"	"slow"	""	NA	"gripstrength.bmp"	1	531	NA	NA	"gripstrength.bmp"	"RunProc"	"TrialProc"	""	"ChunkList"	""	"BlackNeu"	""
10	10	"11/19/2015"	"16:27:18"	"GunNeu"	"RightGun"	4	1	1	199	""	7	"j"	"fast"	"WEAPON3.bmp"	NA	""	1	394	NA	NA	"WEAPON3.bmp"	"RunProc"	"TrialProc"	""	"ChunkList"	""	"WhiteGun"	"whiteface1.bmp"
10	10	"11/19/2015"	"16:27:18"	"GunNeu"	"RightGun"	4	1	1	200	""	7	"j"	"fast"	"WEAPON4.bmp"	NA	""	1	386	NA	NA	"WEAPON4.bmp"	"RunProc"	"TrialProc"	""	"ChunkList"	""	"WhiteGun"	"whiteface3.bmp"
10	10	"11/19/2015"	"16:27:18"	"GunNeu"	"RightGun"	4	1	1	201	""	7	"j"	"fast"	"WEAPON1.bmp"	NA	""	1	337	NA	NA	"WEAPON1.bmp"	"RunProc"	"TrialProc"	""	"ChunkList"	""	"WhiteGun"	"whiteface3.bmp"
10	10	"11/19/2015"	"16:27:18"	"GunNeu"	"RightGun"	4	1	1	202	""	7	"f"	"fast"	""	NA	"giraffe.bmp"	1	433	NA	NA	"giraffe.bmp"	"RunProc"	"TrialProc"	""	"ChunkList"	""	"WhiteNeu"	"whiteface2.bmp"
10	10	"11/19/2015"	"16:27:18"	"GunNeu"	"RightGun"	4	1	1	203	""	7	"j"	"fast"	"WEAPON2.bmp"	NA	""	1	280	NA	NA	"WEAPON2.bmp"	"RunProc"	"TrialProc"	""	"ChunkList"	""	"WhiteGun"	"whiteface1.bmp"
10	10	"11/19/2015"	"16:27:18"	"GunNeu"	"RightGun"	4	1	1	204	"BlackFace4.bmp"	7	"j"	"fast"	"WEAPON1.bmp"	NA	""	1	351	NA	NA	"WEAPON1.bmp"	"RunProc"	"TrialProc"	""	"ChunkList"	""	"BlackGun"	""
10	10	"11/19/2015"	"16:27:18"	"GunNeu"	"RightGun"	4	1	1	205	"BlackFace2.bmp"	7	"f"	"fast"	""	NA	"banana.bmp"	0	334	NA	NA	"banana.bmp"	"RunProc"	"TrialProc"	""	"ChunkList"	""	"BlackNeu"	""
10	10	"11/19/2015"	"16:27:18"	"GunNeu"	"RightGun"	4	1	1	206	""	7	"f"	"fast"	""	NA	"giraffe.bmp"	0	309	NA	NA	"giraffe.bmp"	"RunProc"	"TrialProc"	""	"ChunkList"	""	"WhiteNeu"	"whiteface4.bmp"
10	10	"11/19/2015"	"16:27:18"	"GunNeu"	"RightGun"	4	1	1	207	"BlackFace1.bmp"	7	"f"	"fast"	""	NA	"absneut3.bmp"	1	372	NA	NA	"absneut3.bmp"	"RunProc"	"TrialProc"	""	"ChunkList"	""	"BlackNeu"	""
10	10	"11/19/2015"	"16:27:18"	"GunNeu"	"RightGun"	4	1	1	208	"BlackFace3.bmp"	7	"f"	"fast"	""	NA	"banana.bmp"	1	404	NA	NA	"banana.bmp"	"RunProc"	"TrialProc"	""	"ChunkList"	""	"BlackNeu"	""
10	10	"11/19/2015"	"16:27:18"	"GunNeu"	"RightGun"	4	1	1	209	"BlackFace2.bmp"	7	"f"	"fast"	""	NA	"gripstrength.bmp"	0	355	NA	NA	"gripstrength.bmp"	"RunProc"	"TrialProc"	""	"ChunkList"	""	"BlackNeu"	""
10	10	"11/19/2015"	"16:27:18"	"GunNeu"	"RightGun"	4	1	1	210	"BlackFace1.bmp"	7	"j"	"fast"	"WEAPON4.bmp"	NA	""	1	363	NA	NA	"WEAPON4.bmp"	"RunProc"	"TrialProc"	""	"ChunkList"	""	"BlackGun"	""
10	10	"11/19/2015"	"16:27:18"	"GunNeu"	"RightGun"	4	1	1	211	"BlackFace4.bmp"	7	"f"	"fast"	""	NA	"absneut3.bmp"	1	410	NA	NA	"absneut3.bmp"	"RunProc"	"TrialProc"	""	"ChunkList"	""	"BlackNeu"	""
10	10	"11/19/2015"	"16:27:18"	"GunNeu"	"RightGun"	4	1	1	212	""	7	"j"	"fast"	"WEAPON3.bmp"	NA	""	1	305	NA	NA	"WEAPON3.bmp"	"RunProc"	"TrialProc"	""	"ChunkList"	""	"WhiteGun"	"whiteface3.bmp"
10	10	"11/19/2015"	"16:27:18"	"GunNeu"	"RightGun"	4	1	1	213	""	7	"f"	"fast"	""	NA	"giraffe.bmp"	1	489	NA	NA	"giraffe.bmp"	"RunProc"	"TrialProc"	""	"ChunkList"	""	"WhiteNeu"	"whiteface2.bmp"
10	10	"11/19/2015"	"16:27:18"	"GunNeu"	"RightGun"	4	1	1	214	"BlackFace4.bmp"	7	"f"	"fast"	""	NA	"gripstrength.bmp"	0	352	NA	NA	"gripstrength.bmp"	"RunProc"	"TrialProc"	""	"ChunkList"	""	"BlackNeu"	""
10	10	"11/19/2015"	"16:27:18"	"GunNeu"	"RightGun"	4	1	1	215	"BlackFace2.bmp"	7	"j"	"fast"	"WEAPON3.bmp"	NA	""	1	415	NA	NA	"WEAPON3.bmp"	"RunProc"	"TrialProc"	""	"ChunkList"	""	"BlackGun"	""
10	10	"11/19/2015"	"16:27:18"	"GunNeu"	"RightGun"	4	1	1	216	""	7	"f"	"fast"	""	NA	"banana.bmp"	1	479	NA	NA	"banana.bmp"	"RunProc"	"TrialProc"	""	"ChunkList"	""	"WhiteNeu"	"whiteface1.bmp"
10	10	"11/19/2015"	"16:27:18"	"GunNeu"	"RightGun"	4	1	1	217	"BlackFace3.bmp"	7	"f"	"slow"	""	NA	"gripstrength.bmp"	1	542	NA	NA	"gripstrength.bmp"	"RunProc"	"TrialProc"	""	"ChunkList"	""	"BlackNeu"	""
10	10	"11/19/2015"	"16:27:18"	"GunNeu"	"RightGun"	4	1	1	218	""	7	"j"	"fast"	"WEAPON1.bmp"	NA	""	0	390	NA	NA	"WEAPON1.bmp"	"RunProc"	"TrialProc"	""	"ChunkList"	""	"WhiteGun"	"whiteface4.bmp"
10	10	"11/19/2015"	"16:27:18"	"GunNeu"	"RightGun"	4	1	1	219	""	7	"j"	"fast"	"WEAPON2.bmp"	NA	""	1	365	NA	NA	"WEAPON2.bmp"	"RunProc"	"TrialProc"	""	"ChunkList"	""	"WhiteGun"	"whiteface3.bmp"
10	10	"11/19/2015"	"16:27:18"	"GunNeu"	"RightGun"	4	1	1	220	""	7	"f"	"fast"	""	NA	"banana.bmp"	0	332	NA	NA	"banana.bmp"	"RunProc"	"TrialProc"	""	"ChunkList"	""	"WhiteNeu"	"whiteface4.bmp"
10	10	"11/19/2015"	"16:27:18"	"GunNeu"	"RightGun"	4	1	1	221	""	7	"f"	"fast"	""	NA	"absneut3.bmp"	1	356	NA	NA	"absneut3.bmp"	"RunProc"	"TrialProc"	""	"ChunkList"	""	"WhiteNeu"	"whiteface1.bmp"
10	10	"11/19/2015"	"16:27:18"	"GunNeu"	"RightGun"	4	1	1	222	""	7	"j"	"fast"	"WEAPON4.bmp"	NA	""	1	395	NA	NA	"WEAPON4.bmp"	"RunProc"	"TrialProc"	""	"ChunkList"	""	"WhiteGun"	"whiteface2.bmp"
10	10	"11/19/2015"	"16:27:18"	"GunNeu"	"RightGun"	4	1	1	223	""	7	"f"	"fast"	""	NA	"giraffe.bmp"	1	418	NA	NA	"giraffe.bmp"	"RunProc"	"TrialProc"	""	"ChunkList"	""	"WhiteNeu"	"whiteface1.bmp"
10	10	"11/19/2015"	"16:27:18"	"GunNeu"	"RightGun"	4	1	1	224	"BlackFace1.bmp"	7	"j"	"fast"	"WEAPON3.bmp"	NA	""	1	370	NA	NA	"WEAPON3.bmp"	"RunProc"	"TrialProc"	""	"ChunkList"	""	"BlackGun"	""
10	10	"11/19/2015"	"16:27:18"	"GunNeu"	"RightGun"	4	1	1	225	"BlackFace2.bmp"	7	"f"	"fast"	""	NA	"banana.bmp"	1	433	NA	NA	"banana.bmp"	"RunProc"	"TrialProc"	""	"ChunkList"	""	"BlackNeu"	""
10	10	"11/19/2015"	"16:27:18"	"GunNeu"	"RightGun"	4	1	1	226	""	7	"j"	"fast"	"WEAPON2.bmp"	NA	""	1	401	NA	NA	"WEAPON2.bmp"	"RunProc"	"TrialProc"	""	"ChunkList"	""	"WhiteGun"	"whiteface4.bmp"
10	10	"11/19/2015"	"16:27:18"	"GunNeu"	"RightGun"	4	1	1	227	"BlackFace3.bmp"	7	"f"	"fast"	""	NA	"giraffe.bmp"	1	440	NA	NA	"giraffe.bmp"	"RunProc"	"TrialProc"	""	"ChunkList"	""	"BlackNeu"	""
10	10	"11/19/2015"	"16:27:18"	"GunNeu"	"RightGun"	4	1	1	228	"BlackFace1.bmp"	7	"j"	"fast"	"WEAPON1.bmp"	NA	""	1	471	NA	NA	"WEAPON1.bmp"	"RunProc"	"TrialProc"	""	"ChunkList"	""	"BlackGun"	""
10	10	"11/19/2015"	"16:27:18"	"GunNeu"	"RightGun"	4	1	1	229	"BlackFace4.bmp"	7	"j"	"fast"	"WEAPON4.bmp"	NA	""	1	415	NA	NA	"WEAPON4.bmp"	"RunProc"	"TrialProc"	""	"ChunkList"	""	"BlackGun"	""
10	10	"11/19/2015"	"16:27:18"	"GunNeu"	"RightGun"	4	1	1	230	""	7	"f"	"fast"	""	NA	"gripstrength.bmp"	1	429	NA	NA	"gripstrength.bmp"	"RunProc"	"TrialProc"	""	"ChunkList"	""	"WhiteNeu"	"whiteface2.bmp"
10	10	"11/19/2015"	"16:27:18"	"GunNeu"	"RightGun"	4	1	1	231	"BlackFace1.bmp"	7	"f"	"fast"	""	NA	"absneut3.bmp"	1	460	NA	NA	"absneut3.bmp"	"RunProc"	"TrialProc"	""	"ChunkList"	""	"BlackNeu"	""
10	10	"11/19/2015"	"16:27:18"	"GunNeu"	"RightGun"	4	1	1	232	"BlackFace4.bmp"	7	"j"	"fast"	"WEAPON2.bmp"	NA	""	0	340	NA	NA	"WEAPON2.bmp"	"RunProc"	"TrialProc"	""	"ChunkList"	""	"BlackGun"	""
10	10	"11/19/2015"	"16:27:18"	"GunNeu"	"RightGun"	4	1	1	233	"BlackFace3.bmp"	7	"f"	"fast"	""	NA	"gripstrength.bmp"	0	323	NA	NA	"gripstrength.bmp"	"RunProc"	"TrialProc"	""	"ChunkList"	""	"BlackNeu"	""
10	10	"11/19/2015"	"16:27:18"	"GunNeu"	"RightGun"	4	1	1	234	""	7	"j"	"fast"	"WEAPON4.bmp"	NA	""	1	371	NA	NA	"WEAPON4.bmp"	"RunProc"	"TrialProc"	""	"ChunkList"	""	"WhiteGun"	"whiteface3.bmp"
10	10	"11/19/2015"	"16:27:18"	"GunNeu"	"RightGun"	4	1	1	235	""	7	"f"	"fast"	""	NA	"banana.bmp"	1	482	NA	NA	"banana.bmp"	"RunProc"	"TrialProc"	""	"ChunkList"	""	"WhiteNeu"	"whiteface4.bmp"
10	10	"11/19/2015"	"16:27:18"	"GunNeu"	"RightGun"	4	1	1	236	"BlackFace2.bmp"	7	"j"	"slow"	"WEAPON3.bmp"	NA	""	1	609	NA	NA	"WEAPON3.bmp"	"RunProc"	"TrialProc"	""	"ChunkList"	""	"BlackGun"	""
10	10	"11/19/2015"	"16:27:18"	"GunNeu"	"RightGun"	4	1	1	237	"BlackFace1.bmp"	7	"j"	"fast"	"WEAPON1.bmp"	NA	""	1	353	NA	NA	"WEAPON1.bmp"	"RunProc"	"TrialProc"	""	"ChunkList"	""	"BlackGun"	""
10	10	"11/19/2015"	"16:27:18"	"GunNeu"	"RightGun"	4	1	1	238	""	7	"f"	"fast"	""	NA	"giraffe.bmp"	1	464	NA	NA	"giraffe.bmp"	"RunProc"	"TrialProc"	""	"ChunkList"	""	"WhiteNeu"	"whiteface3.bmp"
10	10	"11/19/2015"	"16:27:18"	"GunNeu"	"RightGun"	4	1	1	239	"BlackFace2.bmp"	7	"j"	"fast"	"WEAPON2.bmp"	NA	""	1	487	NA	NA	"WEAPON2.bmp"	"RunProc"	"TrialProc"	""	"ChunkList"	""	"BlackGun"	""
10	10	"11/19/2015"	"16:27:18"	"GunNeu"	"RightGun"	4	1	1	240	"BlackFace3.bmp"	7	"j"	"fast"	"WEAPON4.bmp"	NA	""	1	359	NA	NA	"WEAPON4.bmp"	"RunProc"	"TrialProc"	""	"ChunkList"	""	"BlackGun"	""
10	10	"11/19/2015"	"16:27:18"	"GunNeu"	"RightGun"	4	1	1	241	""	7	"f"	"fast"	""	NA	"absneut3.bmp"	1	414	NA	NA	"absneut3.bmp"	"RunProc"	"TrialProc"	""	"ChunkList"	""	"WhiteNeu"	"whiteface1.bmp"
10	10	"11/19/2015"	"16:27:18"	"GunNeu"	"RightGun"	4	1	1	242	"BlackFace4.bmp"	7	"j"	"fast"	"WEAPON1.bmp"	NA	""	1	382	NA	NA	"WEAPON1.bmp"	"RunProc"	"TrialProc"	""	"ChunkList"	""	"BlackGun"	""
10	10	"11/19/2015"	"16:27:18"	"GunNeu"	"RightGun"	4	1	1	243	""	7	"j"	"fast"	"WEAPON3.bmp"	NA	""	1	381	NA	NA	"WEAPON3.bmp"	"RunProc"	"TrialProc"	""	"ChunkList"	""	"WhiteGun"	"whiteface2.bmp"
104	1	"4/27/2016"	"12:22:05"	"GunNeu"	"RightGun"	4	2	1	1	""	1	"j"	"fast"	"WEAPON2.bmp"	NA	""	1	354	NA	NA	"WEAPON2.bmp"	"RunProc"	"TrialProc"	""	"ChunkList"	""	"WhiteGun"	"whiteface2.bmp"
104	1	"4/27/2016"	"12:22:05"	"GunNeu"	"RightGun"	4	2	1	2	""	1	"f"	"fast"	""	NA	"gripstrength.bmp"	1	330	NA	NA	"gripstrength.bmp"	"RunProc"	"TrialProc"	""	"ChunkList"	""	"WhiteNeu"	"whiteface1.bmp"
104	1	"4/27/2016"	"12:22:05"	"GunNeu"	"RightGun"	4	2	1	3	"BlackFace1.bmp"	1	"f"	"fast"	""	NA	"absneut3.bmp"	1	465	NA	NA	"absneut3.bmp"	"RunProc"	"TrialProc"	""	"ChunkList"	""	"BlackNeu"	""
104	1	"4/27/2016"	"12:22:05"	"GunNeu"	"RightGun"	4	2	1	4	"BlackFace2.bmp"	1	"j"	"fast"	"WEAPON4.bmp"	NA	""	0	344	NA	NA	"WEAPON4.bmp"	"RunProc"	"TrialProc"	""	"ChunkList"	""	"BlackGun"	""
104	1	"4/27/2016"	"12:22:05"	"GunNeu"	"RightGun"	4	2	1	5	"BlackFace4.bmp"	1	"j"	"fast"	"WEAPON3.bmp"	NA	""	0	320	NA	NA	"WEAPON3.bmp"	"RunProc"	"TrialProc"	""	"ChunkList"	""	"BlackGun"	""
104	1	"4/27/2016"	"12:22:05"	"GunNeu"	"RightGun"	4	2	1	6	"BlackFace3.bmp"	1	"j"	"fast"	"WEAPON1.bmp"	NA	""	0	319	NA	NA	"WEAPON1.bmp"	"RunProc"	"TrialProc"	""	"ChunkList"	""	"BlackGun"	""
104	1	"4/27/2016"	"12:22:05"	"GunNeu"	"RightGun"	4	2	1	7	""	1	"j"	"fast"	"WEAPON4.bmp"	NA	""	1	359	NA	NA	"WEAPON4.bmp"	"RunProc"	"TrialProc"	""	"ChunkList"	""	"WhiteGun"	"whiteface3.bmp"
104	1	"4/27/2016"	"12:22:05"	"GunNeu"	"RightGun"	4	2	1	8	"BlackFace3.bmp"	1	"f"	"fast"	""	NA	"banana.bmp"	1	374	NA	NA	"banana.bmp"	"RunProc"	"TrialProc"	""	"ChunkList"	""	"BlackNeu"	""
104	1	"4/27/2016"	"12:22:05"	"GunNeu"	"RightGun"	4	2	1	9	"BlackFace1.bmp"	1	"f"	"fast"	""	NA	"giraffe.bmp"	1	405	NA	NA	"giraffe.bmp"	"RunProc"	"TrialProc"	""	"ChunkList"	""	"BlackNeu"	""
104	1	"4/27/2016"	"12:22:05"	"GunNeu"	"RightGun"	4	2	1	10	"BlackFace2.bmp"	1	"j"	"fast"	"WEAPON1.bmp"	NA	""	1	317	NA	NA	"WEAPON1.bmp"	"RunProc"	"TrialProc"	""	"ChunkList"	""	"BlackGun"	""
104	1	"4/27/2016"	"12:22:05"	"GunNeu"	"RightGun"	4	2	1	11	""	1	"f"	"slow"	""	NA	"gripstrength.bmp"	1	524	NA	NA	"gripstrength.bmp"	"RunProc"	"TrialProc"	""	"ChunkList"	""	"WhiteNeu"	"whiteface4.bmp"
104	1	"4/27/2016"	"12:22:05"	"GunNeu"	"RightGun"	4	2	1	12	""	1	"j"	"fast"	"WEAPON3.bmp"	NA	""	1	380	NA	NA	"WEAPON3.bmp"	"RunProc"	"TrialProc"	""	"ChunkList"	""	"WhiteGun"	"whiteface1.bmp"
104	1	"4/27/2016"	"12:22:05"	"GunNeu"	"RightGun"	4	2	1	13	"BlackFace4.bmp"	1	"j"	"slow"	"WEAPON2.bmp"	NA	""	1	547	NA	NA	"WEAPON2.bmp"	"RunProc"	"TrialProc"	""	"ChunkList"	""	"BlackGun"	""
104	1	"4/27/2016"	"12:22:05"	"GunNeu"	"RightGun"	4	2	1	14	""	1	"j"	"slow"	"WEAPON3.bmp"	NA	""	1	506	NA	NA	"WEAPON3.bmp"	"RunProc"	"TrialProc"	""	"ChunkList"	""	"WhiteGun"	"whiteface4.bmp"
104	1	"4/27/2016"	"12:22:05"	"GunNeu"	"RightGun"	4	2	1	15	""	1	"j"	"fast"	"WEAPON2.bmp"	NA	""	1	274	NA	NA	"WEAPON2.bmp"	"RunProc"	"TrialProc"	""	"ChunkList"	""	"WhiteGun"	"whiteface2.bmp"
104	1	"4/27/2016"	"12:22:05"	"GunNeu"	"RightGun"	4	2	1	16	""	1	"j"	"fast"	"WEAPON4.bmp"	NA	""	0	296	NA	NA	"WEAPON4.bmp"	"RunProc"	"TrialProc"	""	"ChunkList"	""	"WhiteGun"	"whiteface3.bmp"
104	1	"4/27/2016"	"12:22:05"	"GunNeu"	"RightGun"	4	2	1	17	""	1	"f"	"fast"	""	NA	"banana.bmp"	1	496	NA	NA	"banana.bmp"	"RunProc"	"TrialProc"	""	"ChunkList"	""	"WhiteNeu"	"whiteface4.bmp"
104	1	"4/27/2016"	"12:22:05"	"GunNeu"	"RightGun"	4	2	1	18	"BlackFace3.bmp"	1	"j"	"fast"	"WEAPON1.bmp"	NA	""	1	383	NA	NA	"WEAPON1.bmp"	"RunProc"	"TrialProc"	""	"ChunkList"	""	"BlackGun"	""
104	1	"4/27/2016"	"12:22:05"	"GunNeu"	"RightGun"	4	2	1	19	""	1	"j"	"fast"	"WEAPON4.bmp"	NA	""	1	334	NA	NA	"WEAPON4.bmp"	"RunProc"	"TrialProc"	""	"ChunkList"	""	"WhiteGun"	"whiteface2.bmp"
104	1	"4/27/2016"	"12:22:05"	"GunNeu"	"RightGun"	4	2	1	20	"BlackFace2.bmp"	1	"f"	"fast"	""	NA	"absneut3.bmp"	1	462	NA	NA	"absneut3.bmp"	"RunProc"	"TrialProc"	""	"ChunkList"	""	"BlackNeu"	""
104	1	"4/27/2016"	"12:22:05"	"GunNeu"	"RightGun"	4	2	1	21	""	1	"f"	"fast"	""	NA	"giraffe.bmp"	0	325	NA	NA	"giraffe.bmp"	"RunProc"	"TrialProc"	""	"ChunkList"	""	"WhiteNeu"	"whiteface1.bmp"
104	1	"4/27/2016"	"12:22:05"	"GunNeu"	"RightGun"	4	2	1	22	"BlackFace4.bmp"	1	"f"	"slow"	""	NA	"banana.bmp"	1	573	NA	NA	"banana.bmp"	"RunProc"	"TrialProc"	""	"ChunkList"	""	"BlackNeu"	""
104	1	"4/27/2016"	"12:22:05"	"GunNeu"	"RightGun"	4	2	1	23	"BlackFace1.bmp"	1	"j"	"fast"	"WEAPON2.bmp"	NA	""	1	412	NA	NA	"WEAPON2.bmp"	"RunProc"	"TrialProc"	""	"ChunkList"	""	"BlackGun"	""
104	1	"4/27/2016"	"12:22:05"	"GunNeu"	"RightGun"	4	2	1	24	"BlackFace1.bmp"	1	"j"	"fast"	"WEAPON1.bmp"	NA	""	1	451	NA	NA	"WEAPON1.bmp"	"RunProc"	"TrialProc"	""	"ChunkList"	""	"BlackGun"	""
104	1	"4/27/2016"	"12:22:05"	"GunNeu"	"RightGun"	4	2	1	25	""	1	"j"	"fast"	"WEAPON3.bmp"	NA	""	1	339	NA	NA	"WEAPON3.bmp"	"RunProc"	"TrialProc"	""	"ChunkList"	""	"WhiteGun"	"whiteface3.bmp"
104	1	"4/27/2016"	"12:22:05"	"GunNeu"	"RightGun"	4	2	1	26	""	1	"f"	"slow"	""	NA	"gripstrength.bmp"	1	522	NA	NA	"gripstrength.bmp"	"RunProc"	"TrialProc"	""	"ChunkList"	""	"WhiteNeu"	"whiteface1.bmp"
104	1	"4/27/2016"	"12:22:05"	"GunNeu"	"RightGun"	4	2	1	27	"BlackFace2.bmp"	1	"f"	"fast"	""	NA	"absneut3.bmp"	0	370	NA	NA	"absneut3.bmp"	"RunProc"	"TrialProc"	""	"ChunkList"	""	"BlackNeu"	""
104	1	"4/27/2016"	"12:22:05"	"GunNeu"	"RightGun"	4	2	1	28	""	1	"j"	"fast"	"WEAPON4.bmp"	NA	""	1	345	NA	NA	"WEAPON4.bmp"	"RunProc"	"TrialProc"	""	"ChunkList"	""	"WhiteGun"	"whiteface3.bmp"
104	1	"4/27/2016"	"12:22:05"	"GunNeu"	"RightGun"	4	2	1	29	"BlackFace3.bmp"	1	"f"	"fast"	""	NA	"giraffe.bmp"	1	488	NA	NA	"giraffe.bmp"	"RunProc"	"TrialProc"	""	"ChunkList"	""	"BlackNeu"	""
104	1	"4/27/2016"	"12:22:05"	"GunNeu"	"RightGun"	4	2	1	30	"BlackFace4.bmp"	1	"f"	"fast"	""	NA	"absneut3.bmp"	1	464	NA	NA	"absneut3.bmp"	"RunProc"	"TrialProc"	""	"ChunkList"	""	"BlackNeu"	""
104	1	"4/27/2016"	"12:22:05"	"GunNeu"	"RightGun"	4	2	1	31	""	1	"f"	"fast"	""	NA	"banana.bmp"	1	303	NA	NA	"banana.bmp"	"RunProc"	"TrialProc"	""	"ChunkList"	""	"WhiteNeu"	"whiteface4.bmp"
104	1	"4/27/2016"	"12:22:05"	"GunNeu"	"RightGun"	4	2	1	32	"BlackFace2.bmp"	1	"f"	"slow"	""	NA	"gripstrength.bmp"	1	589	NA	NA	"gripstrength.bmp"	"RunProc"	"TrialProc"	""	"ChunkList"	""	"BlackNeu"	""
104	1	"4/27/2016"	"12:22:05"	"GunNeu"	"RightGun"	4	2	1	33	""	1	"j"	"fast"	"WEAPON1.bmp"	NA	""	1	492	NA	NA	"WEAPON1.bmp"	"RunProc"	"TrialProc"	""	"ChunkList"	""	"WhiteGun"	"whiteface2.bmp"
104	1	"4/27/2016"	"12:22:05"	"GunNeu"	"RightGun"	4	2	1	34	""	1	"f"	"slow"	""	NA	"giraffe.bmp"	1	556	NA	NA	"giraffe.bmp"	"RunProc"	"TrialProc"	""	"ChunkList"	""	"WhiteNeu"	"whiteface1.bmp"
104	1	"4/27/2016"	"12:22:05"	"GunNeu"	"RightGun"	4	2	1	35	""	1	"j"	"fast"	"WEAPON3.bmp"	NA	""	1	475	NA	NA	"WEAPON3.bmp"	"RunProc"	"TrialProc"	""	"ChunkList"	""	"WhiteGun"	"whiteface2.bmp"
104	1	"4/27/2016"	"12:22:05"	"GunNeu"	"RightGun"	4	2	1	36	""	1	"f"	"fast"	""	NA	"giraffe.bmp"	1	466	NA	NA	"giraffe.bmp"	"RunProc"	"TrialProc"	""	"ChunkList"	""	"WhiteNeu"	"whiteface4.bmp"
104	1	"4/27/2016"	"12:22:05"	"GunNeu"	"RightGun"	4	2	1	37	""	1	"f"	"slow"	""	NA	"gripstrength.bmp"	1	522	NA	NA	"gripstrength.bmp"	"RunProc"	"TrialProc"	""	"ChunkList"	""	"WhiteNeu"	"whiteface3.bmp"
104	1	"4/27/2016"	"12:22:05"	"GunNeu"	"RightGun"	4	2	1	38	"BlackFace4.bmp"	1	"f"	"fast"	""	NA	"absneut3.bmp"	1	345	NA	NA	"absneut3.bmp"	"RunProc"	"TrialProc"	""	"ChunkList"	""	"BlackNeu"	""
104	1	"4/27/2016"	"12:22:05"	"GunNeu"	"RightGun"	4	2	1	39	"BlackFace3.bmp"	1	"j"	"fast"	"WEAPON2.bmp"	NA	""	1	425	NA	NA	"WEAPON2.bmp"	"RunProc"	"TrialProc"	""	"ChunkList"	""	"BlackGun"	""
104	1	"4/27/2016"	"12:22:05"	"GunNeu"	"RightGun"	4	2	1	40	"BlackFace1.bmp"	1	"j"	"slow"	"WEAPON4.bmp"	NA	""	1	640	NA	NA	"WEAPON4.bmp"	"RunProc"	"TrialProc"	""	"ChunkList"	""	"BlackGun"	""
104	1	"4/27/2016"	"12:22:05"	"GunNeu"	"RightGun"	4	2	1	41	""	1	"f"	"fast"	""	NA	"banana.bmp"	1	415	NA	NA	"banana.bmp"	"RunProc"	"TrialProc"	""	"ChunkList"	""	"WhiteNeu"	"whiteface2.bmp"
104	1	"4/27/2016"	"12:22:05"	"GunNeu"	"RightGun"	4	2	1	42	"BlackFace3.bmp"	1	"f"	"fast"	""	NA	"giraffe.bmp"	1	487	NA	NA	"giraffe.bmp"	"RunProc"	"TrialProc"	""	"ChunkList"	""	"BlackNeu"	""
104	1	"4/27/2016"	"12:22:05"	"GunNeu"	"RightGun"	4	2	1	43	"BlackFace4.bmp"	1	"f"	"slow"	""	NA	"gripstrength.bmp"	1	574	NA	NA	"gripstrength.bmp"	"RunProc"	"TrialProc"	""	"ChunkList"	""	"BlackNeu"	""
104	1	"4/27/2016"	"12:22:05"	"GunNeu"	"RightGun"	4	2	1	44	""	1	"j"	"fast"	"WEAPON2.bmp"	NA	""	0	414	NA	NA	"WEAPON2.bmp"	"RunProc"	"TrialProc"	""	"ChunkList"	""	"WhiteGun"	"whiteface3.bmp"
104	1	"4/27/2016"	"12:22:05"	"GunNeu"	"RightGun"	4	2	1	45	"BlackFace2.bmp"	1	"j"	"slow"	"WEAPON1.bmp"	NA	""	1	509	NA	NA	"WEAPON1.bmp"	"RunProc"	"TrialProc"	""	"ChunkList"	""	"BlackGun"	""
104	1	"4/27/2016"	"12:22:05"	"GunNeu"	"RightGun"	4	2	1	46	""	1	"f"	"fast"	""	NA	"banana.bmp"	1	460	NA	NA	"banana.bmp"	"RunProc"	"TrialProc"	""	"ChunkList"	""	"WhiteNeu"	"whiteface4.bmp"
104	1	"4/27/2016"	"12:22:05"	"GunNeu"	"RightGun"	4	2	1	47	"BlackFace1.bmp"	1	"j"	"fast"	"WEAPON3.bmp"	NA	""	1	475	NA	NA	"WEAPON3.bmp"	"RunProc"	"TrialProc"	""	"ChunkList"	""	"BlackGun"	""
104	1	"4/27/2016"	"12:22:05"	"GunNeu"	"RightGun"	4	2	1	48	"BlackFace4.bmp"	1	"j"	"fast"	"WEAPON4.bmp"	NA	""	1	490	NA	NA	"WEAPON4.bmp"	"RunProc"	"TrialProc"	""	"ChunkList"	""	"BlackGun"	""
104	1	"4/27/2016"	"12:22:05"	"GunNeu"	"RightGun"	4	2	1	49	""	1	"f"	"fast"	""	NA	"absneut3.bmp"	1	426	NA	NA	"absneut3.bmp"	"RunProc"	"TrialProc"	""	"ChunkList"	""	"WhiteNeu"	"whiteface1.bmp"
104	1	"4/27/2016"	"12:22:05"	"GunNeu"	"RightGun"	4	2	1	50	""	1	"f"	"slow"	""	NA	"gripstrength.bmp"	1	553	NA	NA	"gripstrength.bmp"	"RunProc"	"TrialProc"	""	"ChunkList"	""	"WhiteNeu"	"whiteface1.bmp"
104	1	"4/27/2016"	"12:22:05"	"GunNeu"	"RightGun"	4	2	1	51	"BlackFace2.bmp"	1	"j"	"fast"	"WEAPON2.bmp"	NA	""	0	328	NA	NA	"WEAPON2.bmp"	"RunProc"	"TrialProc"	""	"ChunkList"	""	"BlackGun"	""
104	1	"4/27/2016"	"12:22:05"	"GunNeu"	"RightGun"	4	2	1	52	"BlackFace3.bmp"	1	"f"	"slow"	""	NA	"absneut3.bmp"	1	552	NA	NA	"absneut3.bmp"	"RunProc"	"TrialProc"	""	"ChunkList"	""	"BlackNeu"	""
104	1	"4/27/2016"	"12:22:05"	"GunNeu"	"RightGun"	4	2	1	53	""	1	"j"	"fast"	"WEAPON3.bmp"	NA	""	1	447	NA	NA	"WEAPON3.bmp"	"RunProc"	"TrialProc"	""	"ChunkList"	""	"WhiteGun"	"whiteface2.bmp"
104	1	"4/27/2016"	"12:22:05"	"GunNeu"	"RightGun"	4	2	1	54	""	1	"j"	"fast"	"WEAPON1.bmp"	NA	""	0	423	NA	NA	"WEAPON1.bmp"	"RunProc"	"TrialProc"	""	"ChunkList"	""	"WhiteGun"	"whiteface4.bmp"
104	1	"4/27/2016"	"12:22:05"	"GunNeu"	"RightGun"	4	2	1	55	""	1	"f"	"fast"	""	NA	"banana.bmp"	1	446	NA	NA	"banana.bmp"	"RunProc"	"TrialProc"	""	"ChunkList"	""	"WhiteNeu"	"whiteface3.bmp"
104	1	"4/27/2016"	"12:22:05"	"GunNeu"	"RightGun"	4	2	1	56	""	1	"j"	"slow"	"WEAPON3.bmp"	NA	""	1	533	NA	NA	"WEAPON3.bmp"	"RunProc"	"TrialProc"	""	"ChunkList"	""	"WhiteGun"	"whiteface2.bmp"
104	1	"4/27/2016"	"12:22:05"	"GunNeu"	"RightGun"	4	2	1	57	"BlackFace1.bmp"	1	"f"	"fast"	""	NA	"giraffe.bmp"	1	445	NA	NA	"giraffe.bmp"	"RunProc"	"TrialProc"	""	"ChunkList"	""	"BlackNeu"	""
104	1	"4/27/2016"	"12:22:05"	"GunNeu"	"RightGun"	4	2	1	58	"BlackFace4.bmp"	1	"f"	"slow"	""	NA	"absneut3.bmp"	1	540	NA	NA	"absneut3.bmp"	"RunProc"	"TrialProc"	""	"ChunkList"	""	"BlackNeu"	""
104	1	"4/27/2016"	"12:22:05"	"GunNeu"	"RightGun"	4	2	1	59	"BlackFace2.bmp"	1	"j"	"fast"	"WEAPON2.bmp"	NA	""	1	380	NA	NA	"WEAPON2.bmp"	"RunProc"	"TrialProc"	""	"ChunkList"	""	"BlackGun"	""
104	1	"4/27/2016"	"12:22:05"	"GunNeu"	"RightGun"	4	2	1	60	""	1	"f"	"fast"	""	NA	"banana.bmp"	1	451	NA	NA	"banana.bmp"	"RunProc"	"TrialProc"	""	"ChunkList"	""	"WhiteNeu"	"whiteface1.bmp"
104	1	"4/27/2016"	"12:22:05"	"GunNeu"	"RightGun"	4	2	1	62	"BlackFace3.bmp"	3	"j"	"fast"	"WEAPON1.bmp"	NA	""	1	313	NA	NA	"WEAPON1.bmp"	"RunProc"	"TrialProc"	""	"ChunkList"	""	"BlackGun"	""
104	1	"4/27/2016"	"12:22:05"	"GunNeu"	"RightGun"	4	2	1	63	"BlackFace1.bmp"	3	"j"	"fast"	"WEAPON4.bmp"	NA	""	1	312	NA	NA	"WEAPON4.bmp"	"RunProc"	"TrialProc"	""	"ChunkList"	""	"BlackGun"	""
104	1	"4/27/2016"	"12:22:05"	"GunNeu"	"RightGun"	4	2	1	64	"BlackFace4.bmp"	3	"f"	"fast"	""	NA	"giraffe.bmp"	1	496	NA	NA	"giraffe.bmp"	"RunProc"	"TrialProc"	""	"ChunkList"	""	"BlackNeu"	""
104	1	"4/27/2016"	"12:22:05"	"GunNeu"	"RightGun"	4	2	1	65	""	3	"f"	"slow"	""	NA	"gripstrength.bmp"	1	543	NA	NA	"gripstrength.bmp"	"RunProc"	"TrialProc"	""	"ChunkList"	""	"WhiteNeu"	"whiteface3.bmp"
104	1	"4/27/2016"	"12:22:05"	"GunNeu"	"RightGun"	4	2	1	66	""	3	"j"	"fast"	"WEAPON4.bmp"	NA	""	1	398	NA	NA	"WEAPON4.bmp"	"RunProc"	"TrialProc"	""	"ChunkList"	""	"WhiteGun"	"whiteface4.bmp"
104	1	"4/27/2016"	"12:22:05"	"GunNeu"	"RightGun"	4	2	1	67	""	3	"j"	"fast"	"WEAPON3.bmp"	NA	""	1	357	NA	NA	"WEAPON3.bmp"	"RunProc"	"TrialProc"	""	"ChunkList"	""	"WhiteGun"	"whiteface3.bmp"
104	1	"4/27/2016"	"12:22:05"	"GunNeu"	"RightGun"	4	2	1	68	""	3	"f"	"fast"	""	NA	"gripstrength.bmp"	0	357	NA	NA	"gripstrength.bmp"	"RunProc"	"TrialProc"	""	"ChunkList"	""	"WhiteNeu"	"whiteface1.bmp"
104	1	"4/27/2016"	"12:22:05"	"GunNeu"	"RightGun"	4	2	1	69	"BlackFace1.bmp"	3	"j"	"fast"	"WEAPON2.bmp"	NA	""	0	364	NA	NA	"WEAPON2.bmp"	"RunProc"	"TrialProc"	""	"ChunkList"	""	"BlackGun"	""
104	1	"4/27/2016"	"12:22:05"	"GunNeu"	"RightGun"	4	2	1	70	"BlackFace2.bmp"	3	"j"	"fast"	"WEAPON1.bmp"	NA	""	1	443	NA	NA	"WEAPON1.bmp"	"RunProc"	"TrialProc"	""	"ChunkList"	""	"BlackGun"	""
104	1	"4/27/2016"	"12:22:05"	"GunNeu"	"RightGun"	4	2	1	71	"BlackFace3.bmp"	3	"j"	"fast"	"WEAPON2.bmp"	NA	""	1	427	NA	NA	"WEAPON2.bmp"	"RunProc"	"TrialProc"	""	"ChunkList"	""	"BlackGun"	""
104	1	"4/27/2016"	"12:22:05"	"GunNeu"	"RightGun"	4	2	1	72	""	3	"j"	"fast"	"WEAPON3.bmp"	NA	""	0	378	NA	NA	"WEAPON3.bmp"	"RunProc"	"TrialProc"	""	"ChunkList"	""	"WhiteGun"	"whiteface2.bmp"
104	1	"4/27/2016"	"12:22:05"	"GunNeu"	"RightGun"	4	2	1	73	""	3	"f"	"slow"	""	NA	"absneut3.bmp"	1	506	NA	NA	"absneut3.bmp"	"RunProc"	"TrialProc"	""	"ChunkList"	""	"WhiteNeu"	"whiteface4.bmp"
104	1	"4/27/2016"	"12:22:05"	"GunNeu"	"RightGun"	4	2	1	74	""	3	"f"	"slow"	""	NA	"giraffe.bmp"	1	585	NA	NA	"giraffe.bmp"	"RunProc"	"TrialProc"	""	"ChunkList"	""	"WhiteNeu"	"whiteface3.bmp"
104	1	"4/27/2016"	"12:22:05"	"GunNeu"	"RightGun"	4	2	1	75	"BlackFace1.bmp"	3	"j"	"fast"	"WEAPON4.bmp"	NA	""	1	440	NA	NA	"WEAPON4.bmp"	"RunProc"	"TrialProc"	""	"ChunkList"	""	"BlackGun"	""
104	1	"4/27/2016"	"12:22:05"	"GunNeu"	"RightGun"	4	2	1	76	"BlackFace2.bmp"	3	"f"	"fast"	""	NA	"banana.bmp"	1	496	NA	NA	"banana.bmp"	"RunProc"	"TrialProc"	""	"ChunkList"	""	"BlackNeu"	""
104	1	"4/27/2016"	"12:22:05"	"GunNeu"	"RightGun"	4	2	1	77	""	3	"j"	"fast"	"WEAPON1.bmp"	NA	""	1	350	NA	NA	"WEAPON1.bmp"	"RunProc"	"TrialProc"	""	"ChunkList"	""	"WhiteGun"	"whiteface4.bmp"
104	1	"4/27/2016"	"12:22:05"	"GunNeu"	"RightGun"	4	2	1	78	"BlackFace3.bmp"	3	"j"	"slow"	"WEAPON2.bmp"	NA	""	1	566	NA	NA	"WEAPON2.bmp"	"RunProc"	"TrialProc"	""	"ChunkList"	""	"BlackGun"	""
104	1	"4/27/2016"	"12:22:05"	"GunNeu"	"RightGun"	4	2	1	79	""	3	"j"	"fast"	"WEAPON1.bmp"	NA	""	1	453	NA	NA	"WEAPON1.bmp"	"RunProc"	"TrialProc"	""	"ChunkList"	""	"WhiteGun"	"whiteface2.bmp"
104	1	"4/27/2016"	"12:22:05"	"GunNeu"	"RightGun"	4	2	1	80	"BlackFace4.bmp"	3	"j"	"fast"	"WEAPON3.bmp"	NA	""	1	364	NA	NA	"WEAPON3.bmp"	"RunProc"	"TrialProc"	""	"ChunkList"	""	"BlackGun"	""
104	1	"4/27/2016"	"12:22:05"	"GunNeu"	"RightGun"	4	2	1	81	""	3	"f"	"slow"	""	NA	"gripstrength.bmp"	1	572	NA	NA	"gripstrength.bmp"	"RunProc"	"TrialProc"	""	"ChunkList"	""	"WhiteNeu"	"whiteface1.bmp"
104	1	"4/27/2016"	"12:22:05"	"GunNeu"	"RightGun"	4	2	1	82	""	3	"j"	"fast"	"WEAPON4.bmp"	NA	""	1	435	NA	NA	"WEAPON4.bmp"	"RunProc"	"TrialProc"	""	"ChunkList"	""	"WhiteGun"	"whiteface4.bmp"
104	1	"4/27/2016"	"12:22:05"	"GunNeu"	"RightGun"	4	2	1	83	"BlackFace3.bmp"	3	"j"	"fast"	"WEAPON4.bmp"	NA	""	1	379	NA	NA	"WEAPON4.bmp"	"RunProc"	"TrialProc"	""	"ChunkList"	""	"BlackGun"	""
104	1	"4/27/2016"	"12:22:05"	"GunNeu"	"RightGun"	4	2	1	84	"BlackFace1.bmp"	3	"f"	"fast"	""	NA	"absneut3.bmp"	1	410	NA	NA	"absneut3.bmp"	"RunProc"	"TrialProc"	""	"ChunkList"	""	"BlackNeu"	""
104	1	"4/27/2016"	"12:22:05"	"GunNeu"	"RightGun"	4	2	1	85	"BlackFace4.bmp"	3	"f"	"slow"	""	NA	"banana.bmp"	1	577	NA	NA	"banana.bmp"	"RunProc"	"TrialProc"	""	"ChunkList"	""	"BlackNeu"	""
104	1	"4/27/2016"	"12:22:05"	"GunNeu"	"RightGun"	4	2	1	86	"BlackFace2.bmp"	3	"f"	"slow"	""	NA	"giraffe.bmp"	0	0	NA	NA	"giraffe.bmp"	"RunProc"	"TrialProc"	""	"ChunkList"	""	"BlackNeu"	""
104	1	"4/27/2016"	"12:22:05"	"GunNeu"	"RightGun"	4	2	1	87	"BlackFace2.bmp"	3	"f"	"fast"	""	NA	"gripstrength.bmp"	0	408	NA	NA	"gripstrength.bmp"	"RunProc"	"TrialProc"	""	"ChunkList"	""	"BlackNeu"	""
104	1	"4/27/2016"	"12:22:05"	"GunNeu"	"RightGun"	4	2	1	88	"BlackFace3.bmp"	3	"j"	"slow"	"WEAPON3.bmp"	NA	""	1	512	NA	NA	"WEAPON3.bmp"	"RunProc"	"TrialProc"	""	"ChunkList"	""	"BlackGun"	""
104	1	"4/27/2016"	"12:22:05"	"GunNeu"	"RightGun"	4	2	1	89	""	3	"f"	"fast"	""	NA	"banana.bmp"	1	423	NA	NA	"banana.bmp"	"RunProc"	"TrialProc"	""	"ChunkList"	""	"WhiteNeu"	"whiteface3.bmp"
104	1	"4/27/2016"	"12:22:05"	"GunNeu"	"RightGun"	4	2	1	90	""	3	"j"	"fast"	"WEAPON2.bmp"	NA	""	0	366	NA	NA	"WEAPON2.bmp"	"RunProc"	"TrialProc"	""	"ChunkList"	""	"WhiteGun"	"whiteface1.bmp"
104	1	"4/27/2016"	"12:22:05"	"GunNeu"	"RightGun"	4	2	1	91	""	3	"f"	"slow"	""	NA	"absneut3.bmp"	1	518	NA	NA	"absneut3.bmp"	"RunProc"	"TrialProc"	""	"ChunkList"	""	"WhiteNeu"	"whiteface2.bmp"
104	1	"4/27/2016"	"12:22:05"	"GunNeu"	"RightGun"	4	2	1	92	""	3	"f"	"slow"	""	NA	"giraffe.bmp"	1	645	NA	NA	"giraffe.bmp"	"RunProc"	"TrialProc"	""	"ChunkList"	""	"WhiteNeu"	"whiteface2.bmp"
104	1	"4/27/2016"	"12:22:05"	"GunNeu"	"RightGun"	4	2	1	93	"BlackFace1.bmp"	3	"f"	"slow"	""	NA	"giraffe.bmp"	1	539	NA	NA	"giraffe.bmp"	"RunProc"	"TrialProc"	""	"ChunkList"	""	"BlackNeu"	""
104	1	"4/27/2016"	"12:22:05"	"GunNeu"	"RightGun"	4	2	1	94	""	3	"f"	"fast"	""	NA	"gripstrength.bmp"	0	306	NA	NA	"gripstrength.bmp"	"RunProc"	"TrialProc"	""	"ChunkList"	""	"WhiteNeu"	"whiteface1.bmp"
104	1	"4/27/2016"	"12:22:05"	"GunNeu"	"RightGun"	4	2	1	95	""	3	"j"	"slow"	"WEAPON1.bmp"	NA	""	1	578	NA	NA	"WEAPON1.bmp"	"RunProc"	"TrialProc"	""	"ChunkList"	""	"WhiteGun"	"whiteface3.bmp"
104	1	"4/27/2016"	"12:22:05"	"GunNeu"	"RightGun"	4	2	1	96	""	3	"f"	"fast"	""	NA	"banana.bmp"	1	465	NA	NA	"banana.bmp"	"RunProc"	"TrialProc"	""	"ChunkList"	""	"WhiteNeu"	"whiteface4.bmp"
104	1	"4/27/2016"	"12:22:05"	"GunNeu"	"RightGun"	4	2	1	97	""	3	"j"	"fast"	"WEAPON3.bmp"	NA	""	0	440	NA	NA	"WEAPON3.bmp"	"RunProc"	"TrialProc"	""	"ChunkList"	""	"WhiteGun"	"whiteface1.bmp"
104	1	"4/27/2016"	"12:22:05"	"GunNeu"	"RightGun"	4	2	1	98	""	3	"f"	"slow"	""	NA	"absneut3.bmp"	1	528	NA	NA	"absneut3.bmp"	"RunProc"	"TrialProc"	""	"ChunkList"	""	"WhiteNeu"	"whiteface3.bmp"
104	1	"4/27/2016"	"12:22:05"	"GunNeu"	"RightGun"	4	2	1	99	""	3	"f"	"slow"	""	NA	"gripstrength.bmp"	1	639	NA	NA	"gripstrength.bmp"	"RunProc"	"TrialProc"	""	"ChunkList"	""	"WhiteNeu"	"whiteface2.bmp"
104	1	"4/27/2016"	"12:22:05"	"GunNeu"	"RightGun"	4	2	1	100	""	3	"j"	"fast"	"WEAPON2.bmp"	NA	""	1	479	NA	NA	"WEAPON2.bmp"	"RunProc"	"TrialProc"	""	"ChunkList"	""	"WhiteGun"	"whiteface4.bmp"
104	1	"4/27/2016"	"12:22:05"	"GunNeu"	"RightGun"	4	2	1	101	"BlackFace4.bmp"	3	"f"	"fast"	""	NA	"absneut3.bmp"	1	430	NA	NA	"absneut3.bmp"	"RunProc"	"TrialProc"	""	"ChunkList"	""	"BlackNeu"	""
104	1	"4/27/2016"	"12:22:05"	"GunNeu"	"RightGun"	4	2	1	102	"BlackFace3.bmp"	3	"f"	"fast"	""	NA	"banana.bmp"	1	493	NA	NA	"banana.bmp"	"RunProc"	"TrialProc"	""	"ChunkList"	""	"BlackNeu"	""
104	1	"4/27/2016"	"12:22:05"	"GunNeu"	"RightGun"	4	2	1	103	""	3	"f"	"fast"	""	NA	"giraffe.bmp"	1	413	NA	NA	"giraffe.bmp"	"RunProc"	"TrialProc"	""	"ChunkList"	""	"WhiteNeu"	"whiteface2.bmp"
104	1	"4/27/2016"	"12:22:05"	"GunNeu"	"RightGun"	4	2	1	104	""	3	"j"	"fast"	"WEAPON1.bmp"	NA	""	1	348	NA	NA	"WEAPON1.bmp"	"RunProc"	"TrialProc"	""	"ChunkList"	""	"WhiteGun"	"whiteface1.bmp"
104	1	"4/27/2016"	"12:22:05"	"GunNeu"	"RightGun"	4	2	1	105	"BlackFace4.bmp"	3	"j"	"slow"	"WEAPON4.bmp"	NA	""	1	500	NA	NA	"WEAPON4.bmp"	"RunProc"	"TrialProc"	""	"ChunkList"	""	"BlackGun"	""
104	1	"4/27/2016"	"12:22:05"	"GunNeu"	"RightGun"	4	2	1	106	"BlackFace1.bmp"	3	"j"	"fast"	"WEAPON2.bmp"	NA	""	1	499	NA	NA	"WEAPON2.bmp"	"RunProc"	"TrialProc"	""	"ChunkList"	""	"BlackGun"	""
104	1	"4/27/2016"	"12:22:05"	"GunNeu"	"RightGun"	4	2	1	107	"BlackFace2.bmp"	3	"f"	"slow"	""	NA	"absneut3.bmp"	1	546	NA	NA	"absneut3.bmp"	"RunProc"	"TrialProc"	""	"ChunkList"	""	"BlackNeu"	""
104	1	"4/27/2016"	"12:22:05"	"GunNeu"	"RightGun"	4	2	1	108	"BlackFace4.bmp"	3	"j"	"fast"	"WEAPON3.bmp"	NA	""	1	378	NA	NA	"WEAPON3.bmp"	"RunProc"	"TrialProc"	""	"ChunkList"	""	"BlackGun"	""
104	1	"4/27/2016"	"12:22:05"	"GunNeu"	"RightGun"	4	2	1	109	"BlackFace2.bmp"	3	"f"	"fast"	""	NA	"banana.bmp"	1	480	NA	NA	"banana.bmp"	"RunProc"	"TrialProc"	""	"ChunkList"	""	"BlackNeu"	""
104	1	"4/27/2016"	"12:22:05"	"GunNeu"	"RightGun"	4	2	1	110	"BlackFace1.bmp"	3	"f"	"fast"	""	NA	"gripstrength.bmp"	0	440	NA	NA	"gripstrength.bmp"	"RunProc"	"TrialProc"	""	"ChunkList"	""	"BlackNeu"	""
104	1	"4/27/2016"	"12:22:05"	"GunNeu"	"RightGun"	4	2	1	111	"BlackFace3.bmp"	3	"f"	"fast"	""	NA	"giraffe.bmp"	1	487	NA	NA	"giraffe.bmp"	"RunProc"	"TrialProc"	""	"ChunkList"	""	"BlackNeu"	""
104	1	"4/27/2016"	"12:22:05"	"GunNeu"	"RightGun"	4	2	1	112	""	3	"f"	"slow"	""	NA	"gripstrength.bmp"	1	670	NA	NA	"gripstrength.bmp"	"RunProc"	"TrialProc"	""	"ChunkList"	""	"WhiteNeu"	"whiteface4.bmp"
104	1	"4/27/2016"	"12:22:05"	"GunNeu"	"RightGun"	4	2	1	113	"BlackFace4.bmp"	3	"j"	"slow"	"WEAPON4.bmp"	NA	""	1	502	NA	NA	"WEAPON4.bmp"	"RunProc"	"TrialProc"	""	"ChunkList"	""	"BlackGun"	""
104	1	"4/27/2016"	"12:22:05"	"GunNeu"	"RightGun"	4	2	1	114	""	3	"f"	"fast"	""	NA	"giraffe.bmp"	1	429	NA	NA	"giraffe.bmp"	"RunProc"	"TrialProc"	""	"ChunkList"	""	"WhiteNeu"	"whiteface3.bmp"
104	1	"4/27/2016"	"12:22:05"	"GunNeu"	"RightGun"	4	2	1	115	"BlackFace2.bmp"	3	"f"	"fast"	""	NA	"banana.bmp"	1	485	NA	NA	"banana.bmp"	"RunProc"	"TrialProc"	""	"ChunkList"	""	"BlackNeu"	""
104	1	"4/27/2016"	"12:22:05"	"GunNeu"	"RightGun"	4	2	1	116	""	3	"j"	"fast"	"WEAPON1.bmp"	NA	""	1	436	NA	NA	"WEAPON1.bmp"	"RunProc"	"TrialProc"	""	"ChunkList"	""	"WhiteGun"	"whiteface2.bmp"
104	1	"4/27/2016"	"12:22:05"	"GunNeu"	"RightGun"	4	2	1	117	""	3	"j"	"fast"	"WEAPON4.bmp"	NA	""	1	443	NA	NA	"WEAPON4.bmp"	"RunProc"	"TrialProc"	""	"ChunkList"	""	"WhiteGun"	"whiteface3.bmp"
104	1	"4/27/2016"	"12:22:05"	"GunNeu"	"RightGun"	4	2	1	118	"BlackFace3.bmp"	3	"f"	"fast"	""	NA	"absneut3.bmp"	1	491	NA	NA	"absneut3.bmp"	"RunProc"	"TrialProc"	""	"ChunkList"	""	"BlackNeu"	""
104	1	"4/27/2016"	"12:22:05"	"GunNeu"	"RightGun"	4	2	1	119	"BlackFace1.bmp"	3	"j"	"fast"	"WEAPON2.bmp"	NA	""	1	466	NA	NA	"WEAPON2.bmp"	"RunProc"	"TrialProc"	""	"ChunkList"	""	"BlackGun"	""
104	1	"4/27/2016"	"12:22:05"	"GunNeu"	"RightGun"	4	2	1	120	""	3	"j"	"fast"	"WEAPON3.bmp"	NA	""	1	498	NA	NA	"WEAPON3.bmp"	"RunProc"	"TrialProc"	""	"ChunkList"	""	"WhiteGun"	"whiteface1.bmp"
104	1	"4/27/2016"	"12:22:05"	"GunNeu"	"RightGun"	4	2	1	121	""	3	"j"	"fast"	"WEAPON1.bmp"	NA	""	1	489	NA	NA	"WEAPON1.bmp"	"RunProc"	"TrialProc"	""	"ChunkList"	""	"WhiteGun"	"whiteface4.bmp"
104	1	"4/27/2016"	"12:22:05"	"GunNeu"	"RightGun"	4	2	1	123	""	5	"j"	"fast"	"WEAPON4.bmp"	NA	""	0	417	NA	NA	"WEAPON4.bmp"	"RunProc"	"TrialProc"	""	"ChunkList"	""	"WhiteGun"	"whiteface3.bmp"
104	1	"4/27/2016"	"12:22:05"	"GunNeu"	"RightGun"	4	2	1	124	""	5	"j"	"fast"	"WEAPON2.bmp"	NA	""	1	384	NA	NA	"WEAPON2.bmp"	"RunProc"	"TrialProc"	""	"ChunkList"	""	"WhiteGun"	"whiteface4.bmp"
104	1	"4/27/2016"	"12:22:05"	"GunNeu"	"RightGun"	4	2	1	125	""	5	"f"	"fast"	""	NA	"gripstrength.bmp"	0	416	NA	NA	"gripstrength.bmp"	"RunProc"	"TrialProc"	""	"ChunkList"	""	"WhiteNeu"	"whiteface2.bmp"
104	1	"4/27/2016"	"12:22:05"	"GunNeu"	"RightGun"	4	2	1	126	""	5	"f"	"slow"	""	NA	"absneut3.bmp"	1	607	NA	NA	"absneut3.bmp"	"RunProc"	"TrialProc"	""	"ChunkList"	""	"WhiteNeu"	"whiteface1.bmp"
104	1	"4/27/2016"	"12:22:05"	"GunNeu"	"RightGun"	4	2	1	127	""	5	"j"	"fast"	"WEAPON1.bmp"	NA	""	1	470	NA	NA	"WEAPON1.bmp"	"RunProc"	"TrialProc"	""	"ChunkList"	""	"WhiteGun"	"whiteface1.bmp"
104	1	"4/27/2016"	"12:22:05"	"GunNeu"	"RightGun"	4	2	1	128	"BlackFace4.bmp"	5	"j"	"fast"	"WEAPON3.bmp"	NA	""	1	406	NA	NA	"WEAPON3.bmp"	"RunProc"	"TrialProc"	""	"ChunkList"	""	"BlackGun"	""
104	1	"4/27/2016"	"12:22:05"	"GunNeu"	"RightGun"	4	2	1	129	"BlackFace1.bmp"	5	"j"	"fast"	"WEAPON3.bmp"	NA	""	1	349	NA	NA	"WEAPON3.bmp"	"RunProc"	"TrialProc"	""	"ChunkList"	""	"BlackGun"	""
104	1	"4/27/2016"	"12:22:05"	"GunNeu"	"RightGun"	4	2	1	130	""	5	"f"	"fast"	""	NA	"banana.bmp"	1	429	NA	NA	"banana.bmp"	"RunProc"	"TrialProc"	""	"ChunkList"	""	"WhiteNeu"	"whiteface4.bmp"
104	1	"4/27/2016"	"12:22:05"	"GunNeu"	"RightGun"	4	2	1	131	"BlackFace3.bmp"	5	"f"	"slow"	""	NA	"giraffe.bmp"	1	660	NA	NA	"giraffe.bmp"	"RunProc"	"TrialProc"	""	"ChunkList"	""	"BlackNeu"	""
104	1	"4/27/2016"	"12:22:05"	"GunNeu"	"RightGun"	4	2	1	132	""	5	"j"	"fast"	"WEAPON2.bmp"	NA	""	1	491	NA	NA	"WEAPON2.bmp"	"RunProc"	"TrialProc"	""	"ChunkList"	""	"WhiteGun"	"whiteface3.bmp"
104	1	"4/27/2016"	"12:22:05"	"GunNeu"	"RightGun"	4	2	1	133	"BlackFace2.bmp"	5	"j"	"fast"	"WEAPON1.bmp"	NA	""	1	419	NA	NA	"WEAPON1.bmp"	"RunProc"	"TrialProc"	""	"ChunkList"	""	"BlackGun"	""
104	1	"4/27/2016"	"12:22:05"	"GunNeu"	"RightGun"	4	2	1	134	"BlackFace4.bmp"	5	"f"	"fast"	""	NA	"giraffe.bmp"	1	498	NA	NA	"giraffe.bmp"	"RunProc"	"TrialProc"	""	"ChunkList"	""	"BlackNeu"	""
104	1	"4/27/2016"	"12:22:05"	"GunNeu"	"RightGun"	4	2	1	135	""	5	"j"	"fast"	"WEAPON4.bmp"	NA	""	1	498	NA	NA	"WEAPON4.bmp"	"RunProc"	"TrialProc"	""	"ChunkList"	""	"WhiteGun"	"whiteface2.bmp"
104	1	"4/27/2016"	"12:22:05"	"GunNeu"	"RightGun"	4	2	1	136	""	5	"f"	"fast"	""	NA	"absneut3.bmp"	1	473	NA	NA	"absneut3.bmp"	"RunProc"	"TrialProc"	""	"ChunkList"	""	"WhiteNeu"	"whiteface3.bmp"
104	1	"4/27/2016"	"12:22:05"	"GunNeu"	"RightGun"	4	2	1	137	""	5	"f"	"slow"	""	NA	"gripstrength.bmp"	1	624	NA	NA	"gripstrength.bmp"	"RunProc"	"TrialProc"	""	"ChunkList"	""	"WhiteNeu"	"whiteface1.bmp"
104	1	"4/27/2016"	"12:22:05"	"GunNeu"	"RightGun"	4	2	1	138	"BlackFace2.bmp"	5	"f"	"slow"	""	NA	"banana.bmp"	1	552	NA	NA	"banana.bmp"	"RunProc"	"TrialProc"	""	"ChunkList"	""	"BlackNeu"	""
104	1	"4/27/2016"	"12:22:05"	"GunNeu"	"RightGun"	4	2	1	139	""	5	"f"	"slow"	""	NA	"gripstrength.bmp"	1	630	NA	NA	"gripstrength.bmp"	"RunProc"	"TrialProc"	""	"ChunkList"	""	"WhiteNeu"	"whiteface4.bmp"
104	1	"4/27/2016"	"12:22:05"	"GunNeu"	"RightGun"	4	2	1	140	"BlackFace1.bmp"	5	"f"	"fast"	""	NA	"absneut3.bmp"	1	494	NA	NA	"absneut3.bmp"	"RunProc"	"TrialProc"	""	"ChunkList"	""	"BlackNeu"	""
104	1	"4/27/2016"	"12:22:05"	"GunNeu"	"RightGun"	4	2	1	141	"BlackFace3.bmp"	5	"j"	"fast"	"WEAPON3.bmp"	NA	""	1	485	NA	NA	"WEAPON3.bmp"	"RunProc"	"TrialProc"	""	"ChunkList"	""	"BlackGun"	""
104	1	"4/27/2016"	"12:22:05"	"GunNeu"	"RightGun"	4	2	1	142	""	5	"f"	"fast"	""	NA	"giraffe.bmp"	1	444	NA	NA	"giraffe.bmp"	"RunProc"	"TrialProc"	""	"ChunkList"	""	"WhiteNeu"	"whiteface2.bmp"
104	1	"4/27/2016"	"12:22:05"	"GunNeu"	"RightGun"	4	2	1	143	""	5	"f"	"fast"	""	NA	"banana.bmp"	1	372	NA	NA	"banana.bmp"	"RunProc"	"TrialProc"	""	"ChunkList"	""	"WhiteNeu"	"whiteface3.bmp"
104	1	"4/27/2016"	"12:22:05"	"GunNeu"	"RightGun"	4	2	1	144	"BlackFace4.bmp"	5	"j"	"fast"	"WEAPON4.bmp"	NA	""	1	419	NA	NA	"WEAPON4.bmp"	"RunProc"	"TrialProc"	""	"ChunkList"	""	"BlackGun"	""
104	1	"4/27/2016"	"12:22:05"	"GunNeu"	"RightGun"	4	2	1	145	"BlackFace2.bmp"	5	"f"	"fast"	""	NA	"banana.bmp"	1	379	NA	NA	"banana.bmp"	"RunProc"	"TrialProc"	""	"ChunkList"	""	"BlackNeu"	""
104	1	"4/27/2016"	"12:22:05"	"GunNeu"	"RightGun"	4	2	1	146	"BlackFace3.bmp"	5	"f"	"slow"	""	NA	"giraffe.bmp"	1	514	NA	NA	"giraffe.bmp"	"RunProc"	"TrialProc"	""	"ChunkList"	""	"BlackNeu"	""
104	1	"4/27/2016"	"12:22:05"	"GunNeu"	"RightGun"	4	2	1	147	"BlackFace1.bmp"	5	"j"	"fast"	"WEAPON2.bmp"	NA	""	0	329	NA	NA	"WEAPON2.bmp"	"RunProc"	"TrialProc"	""	"ChunkList"	""	"BlackGun"	""
104	1	"4/27/2016"	"12:22:05"	"GunNeu"	"RightGun"	4	2	1	148	""	5	"f"	"fast"	""	NA	"absneut3.bmp"	1	481	NA	NA	"absneut3.bmp"	"RunProc"	"TrialProc"	""	"ChunkList"	""	"WhiteNeu"	"whiteface4.bmp"
104	1	"4/27/2016"	"12:22:05"	"GunNeu"	"RightGun"	4	2	1	149	""	5	"j"	"fast"	"WEAPON1.bmp"	NA	""	1	368	NA	NA	"WEAPON1.bmp"	"RunProc"	"TrialProc"	""	"ChunkList"	""	"WhiteGun"	"whiteface1.bmp"
104	1	"4/27/2016"	"12:22:05"	"GunNeu"	"RightGun"	4	2	1	150	""	5	"j"	"fast"	"WEAPON4.bmp"	NA	""	0	352	NA	NA	"WEAPON4.bmp"	"RunProc"	"TrialProc"	""	"ChunkList"	""	"WhiteGun"	"whiteface2.bmp"
104	1	"4/27/2016"	"12:22:05"	"GunNeu"	"RightGun"	4	2	1	151	""	5	"f"	"slow"	""	NA	"gripstrength.bmp"	1	631	NA	NA	"gripstrength.bmp"	"RunProc"	"TrialProc"	""	"ChunkList"	""	"WhiteNeu"	"whiteface1.bmp"
104	1	"4/27/2016"	"12:22:05"	"GunNeu"	"RightGun"	4	2	1	152	"BlackFace1.bmp"	5	"f"	"slow"	""	NA	"gripstrength.bmp"	0	0	NA	NA	"gripstrength.bmp"	"RunProc"	"TrialProc"	""	"ChunkList"	""	"BlackNeu"	""
104	1	"4/27/2016"	"12:22:05"	"GunNeu"	"RightGun"	4	2	1	153	""	5	"j"	"slow"	"WEAPON1.bmp"	NA	""	1	502	NA	NA	"WEAPON1.bmp"	"RunProc"	"TrialProc"	""	"ChunkList"	""	"WhiteGun"	"whiteface3.bmp"
104	1	"4/27/2016"	"12:22:05"	"GunNeu"	"RightGun"	4	2	1	154	"BlackFace3.bmp"	5	"j"	"slow"	"WEAPON2.bmp"	NA	""	1	565	NA	NA	"WEAPON2.bmp"	"RunProc"	"TrialProc"	""	"ChunkList"	""	"BlackGun"	""
104	1	"4/27/2016"	"12:22:05"	"GunNeu"	"RightGun"	4	2	1	155	"BlackFace2.bmp"	5	"f"	"slow"	""	NA	"banana.bmp"	1	532	NA	NA	"banana.bmp"	"RunProc"	"TrialProc"	""	"ChunkList"	""	"BlackNeu"	""
104	1	"4/27/2016"	"12:22:05"	"GunNeu"	"RightGun"	4	2	1	156	"BlackFace4.bmp"	5	"f"	"slow"	""	NA	"giraffe.bmp"	1	555	NA	NA	"giraffe.bmp"	"RunProc"	"TrialProc"	""	"ChunkList"	""	"BlackNeu"	""
104	1	"4/27/2016"	"12:22:05"	"GunNeu"	"RightGun"	4	2	1	157	""	5	"j"	"fast"	"WEAPON3.bmp"	NA	""	0	330	NA	NA	"WEAPON3.bmp"	"RunProc"	"TrialProc"	""	"ChunkList"	""	"WhiteGun"	"whiteface4.bmp"
104	1	"4/27/2016"	"12:22:05"	"GunNeu"	"RightGun"	4	2	1	158	"BlackFace3.bmp"	5	"f"	"slow"	""	NA	"absneut3.bmp"	1	506	NA	NA	"absneut3.bmp"	"RunProc"	"TrialProc"	""	"ChunkList"	""	"BlackNeu"	""
104	1	"4/27/2016"	"12:22:05"	"GunNeu"	"RightGun"	4	2	1	159	""	5	"f"	"fast"	""	NA	"banana.bmp"	1	457	NA	NA	"banana.bmp"	"RunProc"	"TrialProc"	""	"ChunkList"	""	"WhiteNeu"	"whiteface2.bmp"
104	1	"4/27/2016"	"12:22:05"	"GunNeu"	"RightGun"	4	2	1	160	"BlackFace4.bmp"	5	"j"	"fast"	"WEAPON4.bmp"	NA	""	1	368	NA	NA	"WEAPON4.bmp"	"RunProc"	"TrialProc"	""	"ChunkList"	""	"BlackGun"	""
104	1	"4/27/2016"	"12:22:05"	"GunNeu"	"RightGun"	4	2	1	161	"BlackFace1.bmp"	5	"f"	"slow"	""	NA	"giraffe.bmp"	1	543	NA	NA	"giraffe.bmp"	"RunProc"	"TrialProc"	""	"ChunkList"	""	"BlackNeu"	""
104	1	"4/27/2016"	"12:22:05"	"GunNeu"	"RightGun"	4	2	1	162	""	5	"j"	"fast"	"WEAPON1.bmp"	NA	""	1	431	NA	NA	"WEAPON1.bmp"	"RunProc"	"TrialProc"	""	"ChunkList"	""	"WhiteGun"	"whiteface2.bmp"
104	1	"4/27/2016"	"12:22:05"	"GunNeu"	"RightGun"	4	2	1	163	"BlackFace2.bmp"	5	"j"	"fast"	"WEAPON3.bmp"	NA	""	1	446	NA	NA	"WEAPON3.bmp"	"RunProc"	"TrialProc"	""	"ChunkList"	""	"BlackGun"	""
104	1	"4/27/2016"	"12:22:05"	"GunNeu"	"RightGun"	4	2	1	164	"BlackFace3.bmp"	5	"j"	"fast"	"WEAPON2.bmp"	NA	""	1	429	NA	NA	"WEAPON2.bmp"	"RunProc"	"TrialProc"	""	"ChunkList"	""	"BlackGun"	""
104	1	"4/27/2016"	"12:22:05"	"GunNeu"	"RightGun"	4	2	1	165	"BlackFace4.bmp"	5	"j"	"fast"	"WEAPON4.bmp"	NA	""	1	437	NA	NA	"WEAPON4.bmp"	"RunProc"	"TrialProc"	""	"ChunkList"	""	"BlackGun"	""
104	1	"4/27/2016"	"12:22:05"	"GunNeu"	"RightGun"	4	2	1	166	"BlackFace2.bmp"	5	"j"	"fast"	"WEAPON2.bmp"	NA	""	1	404	NA	NA	"WEAPON2.bmp"	"RunProc"	"TrialProc"	""	"ChunkList"	""	"BlackGun"	""
104	1	"4/27/2016"	"12:22:05"	"GunNeu"	"RightGun"	4	2	1	167	""	5	"j"	"fast"	"WEAPON3.bmp"	NA	""	0	356	NA	NA	"WEAPON3.bmp"	"RunProc"	"TrialProc"	""	"ChunkList"	""	"WhiteGun"	"whiteface4.bmp"
104	1	"4/27/2016"	"12:22:05"	"GunNeu"	"RightGun"	4	2	1	168	""	5	"j"	"slow"	"WEAPON1.bmp"	NA	""	1	587	NA	NA	"WEAPON1.bmp"	"RunProc"	"TrialProc"	""	"ChunkList"	""	"WhiteGun"	"whiteface3.bmp"
104	1	"4/27/2016"	"12:22:05"	"GunNeu"	"RightGun"	4	2	1	169	""	5	"j"	"fast"	"WEAPON1.bmp"	NA	""	1	410	NA	NA	"WEAPON1.bmp"	"RunProc"	"TrialProc"	""	"ChunkList"	""	"WhiteGun"	"whiteface1.bmp"
104	1	"4/27/2016"	"12:22:05"	"GunNeu"	"RightGun"	4	2	1	170	""	5	"f"	"slow"	""	NA	"gripstrength.bmp"	1	634	NA	NA	"gripstrength.bmp"	"RunProc"	"TrialProc"	""	"ChunkList"	""	"WhiteNeu"	"whiteface4.bmp"
104	1	"4/27/2016"	"12:22:05"	"GunNeu"	"RightGun"	4	2	1	171	"BlackFace1.bmp"	5	"j"	"slow"	"WEAPON3.bmp"	NA	""	1	520	NA	NA	"WEAPON3.bmp"	"RunProc"	"TrialProc"	""	"ChunkList"	""	"BlackGun"	""
104	1	"4/27/2016"	"12:22:05"	"GunNeu"	"RightGun"	4	2	1	172	"BlackFace2.bmp"	5	"f"	"fast"	""	NA	"absneut3.bmp"	1	432	NA	NA	"absneut3.bmp"	"RunProc"	"TrialProc"	""	"ChunkList"	""	"BlackNeu"	""
104	1	"4/27/2016"	"12:22:05"	"GunNeu"	"RightGun"	4	2	1	173	""	5	"j"	"fast"	"WEAPON2.bmp"	NA	""	1	487	NA	NA	"WEAPON2.bmp"	"RunProc"	"TrialProc"	""	"ChunkList"	""	"WhiteGun"	"whiteface2.bmp"
104	1	"4/27/2016"	"12:22:05"	"GunNeu"	"RightGun"	4	2	1	174	"BlackFace1.bmp"	5	"f"	"slow"	""	NA	"gripstrength.bmp"	1	614	NA	NA	"gripstrength.bmp"	"RunProc"	"TrialProc"	""	"ChunkList"	""	"BlackNeu"	""
104	1	"4/27/2016"	"12:22:05"	"GunNeu"	"RightGun"	4	2	1	175	""	5	"f"	"fast"	""	NA	"banana.bmp"	0	390	NA	NA	"banana.bmp"	"RunProc"	"TrialProc"	""	"ChunkList"	""	"WhiteNeu"	"whiteface3.bmp"
104	1	"4/27/2016"	"12:22:05"	"GunNeu"	"RightGun"	4	2	1	176	"BlackFace4.bmp"	5	"f"	"slow"	""	NA	"giraffe.bmp"	1	605	NA	NA	"giraffe.bmp"	"RunProc"	"TrialProc"	""	"ChunkList"	""	"BlackNeu"	""
104	1	"4/27/2016"	"12:22:05"	"GunNeu"	"RightGun"	4	2	1	177	""	5	"f"	"slow"	""	NA	"absneut3.bmp"	1	541	NA	NA	"absneut3.bmp"	"RunProc"	"TrialProc"	""	"ChunkList"	""	"WhiteNeu"	"whiteface1.bmp"
104	1	"4/27/2016"	"12:22:05"	"GunNeu"	"RightGun"	4	2	1	178	""	5	"j"	"fast"	"WEAPON4.bmp"	NA	""	1	484	NA	NA	"WEAPON4.bmp"	"RunProc"	"TrialProc"	""	"ChunkList"	""	"WhiteGun"	"whiteface2.bmp"
104	1	"4/27/2016"	"12:22:05"	"GunNeu"	"RightGun"	4	2	1	179	"BlackFace3.bmp"	5	"j"	"fast"	"WEAPON3.bmp"	NA	""	1	459	NA	NA	"WEAPON3.bmp"	"RunProc"	"TrialProc"	""	"ChunkList"	""	"BlackGun"	""
104	1	"4/27/2016"	"12:22:05"	"GunNeu"	"RightGun"	4	2	1	180	"BlackFace2.bmp"	5	"j"	"fast"	"WEAPON4.bmp"	NA	""	1	475	NA	NA	"WEAPON4.bmp"	"RunProc"	"TrialProc"	""	"ChunkList"	""	"BlackGun"	""
104	1	"4/27/2016"	"12:22:05"	"GunNeu"	"RightGun"	4	2	1	181	"BlackFace1.bmp"	5	"f"	"slow"	""	NA	"gripstrength.bmp"	1	570	NA	NA	"gripstrength.bmp"	"RunProc"	"TrialProc"	""	"ChunkList"	""	"BlackNeu"	""
104	1	"4/27/2016"	"12:22:05"	"GunNeu"	"RightGun"	4	2	1	182	""	5	"f"	"fast"	""	NA	"giraffe.bmp"	1	482	NA	NA	"giraffe.bmp"	"RunProc"	"TrialProc"	""	"ChunkList"	""	"WhiteNeu"	"whiteface4.bmp"
104	1	"4/27/2016"	"12:22:05"	"GunNeu"	"RightGun"	4	2	1	184	"BlackFace3.bmp"	7	"j"	"fast"	"WEAPON1.bmp"	NA	""	1	320	NA	NA	"WEAPON1.bmp"	"RunProc"	"TrialProc"	""	"ChunkList"	""	"BlackGun"	""
104	1	"4/27/2016"	"12:22:05"	"GunNeu"	"RightGun"	4	2	1	185	""	7	"f"	"fast"	""	NA	"banana.bmp"	1	447	NA	NA	"banana.bmp"	"RunProc"	"TrialProc"	""	"ChunkList"	""	"WhiteNeu"	"whiteface1.bmp"
104	1	"4/27/2016"	"12:22:05"	"GunNeu"	"RightGun"	4	2	1	186	"BlackFace4.bmp"	7	"f"	"slow"	""	NA	"absneut3.bmp"	1	502	NA	NA	"absneut3.bmp"	"RunProc"	"TrialProc"	""	"ChunkList"	""	"BlackNeu"	""
104	1	"4/27/2016"	"12:22:05"	"GunNeu"	"RightGun"	4	2	1	187	""	7	"j"	"slow"	"WEAPON2.bmp"	NA	""	1	510	NA	NA	"WEAPON2.bmp"	"RunProc"	"TrialProc"	""	"ChunkList"	""	"WhiteGun"	"whiteface3.bmp"
104	1	"4/27/2016"	"12:22:05"	"GunNeu"	"RightGun"	4	2	1	188	""	7	"f"	"slow"	""	NA	"gripstrength.bmp"	1	502	NA	NA	"gripstrength.bmp"	"RunProc"	"TrialProc"	""	"ChunkList"	""	"WhiteNeu"	"whiteface1.bmp"
104	1	"4/27/2016"	"12:22:05"	"GunNeu"	"RightGun"	4	2	1	189	"BlackFace3.bmp"	7	"j"	"fast"	"WEAPON4.bmp"	NA	""	1	356	NA	NA	"WEAPON4.bmp"	"RunProc"	"TrialProc"	""	"ChunkList"	""	"BlackGun"	""
104	1	"4/27/2016"	"12:22:05"	"GunNeu"	"RightGun"	4	2	1	190	"BlackFace2.bmp"	7	"f"	"fast"	""	NA	"banana.bmp"	1	452	NA	NA	"banana.bmp"	"RunProc"	"TrialProc"	""	"ChunkList"	""	"BlackNeu"	""
104	1	"4/27/2016"	"12:22:05"	"GunNeu"	"RightGun"	4	2	1	191	"BlackFace1.bmp"	7	"f"	"slow"	""	NA	"giraffe.bmp"	1	531	NA	NA	"giraffe.bmp"	"RunProc"	"TrialProc"	""	"ChunkList"	""	"BlackNeu"	""
104	1	"4/27/2016"	"12:22:05"	"GunNeu"	"RightGun"	4	2	1	192	""	7	"j"	"fast"	"WEAPON1.bmp"	NA	""	0	435	NA	NA	"WEAPON1.bmp"	"RunProc"	"TrialProc"	""	"ChunkList"	""	"WhiteGun"	"whiteface2.bmp"
104	1	"4/27/2016"	"12:22:05"	"GunNeu"	"RightGun"	4	2	1	193	""	7	"j"	"fast"	"WEAPON2.bmp"	NA	""	0	418	NA	NA	"WEAPON2.bmp"	"RunProc"	"TrialProc"	""	"ChunkList"	""	"WhiteGun"	"whiteface3.bmp"
104	1	"4/27/2016"	"12:22:05"	"GunNeu"	"RightGun"	4	2	1	194	""	7	"f"	"slow"	""	NA	"absneut3.bmp"	1	521	NA	NA	"absneut3.bmp"	"RunProc"	"TrialProc"	""	"ChunkList"	""	"WhiteNeu"	"whiteface4.bmp"
104	1	"4/27/2016"	"12:22:05"	"GunNeu"	"RightGun"	4	2	1	195	"BlackFace4.bmp"	7	"f"	"slow"	""	NA	"giraffe.bmp"	1	569	NA	NA	"giraffe.bmp"	"RunProc"	"TrialProc"	""	"ChunkList"	""	"BlackNeu"	""
104	1	"4/27/2016"	"12:22:05"	"GunNeu"	"RightGun"	4	2	1	196	"BlackFace2.bmp"	7	"j"	"fast"	"WEAPON3.bmp"	NA	""	1	416	NA	NA	"WEAPON3.bmp"	"RunProc"	"TrialProc"	""	"ChunkList"	""	"BlackGun"	""
104	1	"4/27/2016"	"12:22:05"	"GunNeu"	"RightGun"	4	2	1	197	"BlackFace4.bmp"	7	"j"	"fast"	"WEAPON4.bmp"	NA	""	1	448	NA	NA	"WEAPON4.bmp"	"RunProc"	"TrialProc"	""	"ChunkList"	""	"BlackGun"	""
104	1	"4/27/2016"	"12:22:05"	"GunNeu"	"RightGun"	4	2	1	198	"BlackFace3.bmp"	7	"j"	"fast"	"WEAPON1.bmp"	NA	""	1	431	NA	NA	"WEAPON1.bmp"	"RunProc"	"TrialProc"	""	"ChunkList"	""	"BlackGun"	""
104	1	"4/27/2016"	"12:22:05"	"GunNeu"	"RightGun"	4	2	1	199	""	7	"j"	"slow"	"WEAPON3.bmp"	NA	""	1	646	NA	NA	"WEAPON3.bmp"	"RunProc"	"TrialProc"	""	"ChunkList"	""	"WhiteGun"	"whiteface1.bmp"
104	1	"4/27/2016"	"12:22:05"	"GunNeu"	"RightGun"	4	2	1	200	"BlackFace1.bmp"	7	"j"	"fast"	"WEAPON2.bmp"	NA	""	1	445	NA	NA	"WEAPON2.bmp"	"RunProc"	"TrialProc"	""	"ChunkList"	""	"BlackGun"	""
104	1	"4/27/2016"	"12:22:05"	"GunNeu"	"RightGun"	4	2	1	201	"BlackFace1.bmp"	7	"f"	"fast"	""	NA	"gripstrength.bmp"	0	316	NA	NA	"gripstrength.bmp"	"RunProc"	"TrialProc"	""	"ChunkList"	""	"BlackNeu"	""
104	1	"4/27/2016"	"12:22:05"	"GunNeu"	"RightGun"	4	2	1	202	"BlackFace2.bmp"	7	"j"	"fast"	"WEAPON1.bmp"	NA	""	1	476	NA	NA	"WEAPON1.bmp"	"RunProc"	"TrialProc"	""	"ChunkList"	""	"BlackGun"	""
104	1	"4/27/2016"	"12:22:05"	"GunNeu"	"RightGun"	4	2	1	203	""	7	"f"	"slow"	""	NA	"absneut3.bmp"	1	523	NA	NA	"absneut3.bmp"	"RunProc"	"TrialProc"	""	"ChunkList"	""	"WhiteNeu"	"whiteface2.bmp"
104	1	"4/27/2016"	"12:22:05"	"GunNeu"	"RightGun"	4	2	1	204	"BlackFace4.bmp"	7	"f"	"slow"	""	NA	"banana.bmp"	1	754	NA	NA	"banana.bmp"	"RunProc"	"TrialProc"	""	"ChunkList"	""	"BlackNeu"	""
104	1	"4/27/2016"	"12:22:05"	"GunNeu"	"RightGun"	4	2	1	205	"BlackFace3.bmp"	7	"f"	"fast"	""	NA	"banana.bmp"	1	442	NA	NA	"banana.bmp"	"RunProc"	"TrialProc"	""	"ChunkList"	""	"BlackNeu"	""
104	1	"4/27/2016"	"12:22:05"	"GunNeu"	"RightGun"	4	2	1	206	"BlackFace3.bmp"	7	"j"	"fast"	"WEAPON3.bmp"	NA	""	1	497	NA	NA	"WEAPON3.bmp"	"RunProc"	"TrialProc"	""	"ChunkList"	""	"BlackGun"	""
104	1	"4/27/2016"	"12:22:05"	"GunNeu"	"RightGun"	4	2	1	207	""	7	"j"	"fast"	"WEAPON2.bmp"	NA	""	0	497	NA	NA	"WEAPON2.bmp"	"RunProc"	"TrialProc"	""	"ChunkList"	""	"WhiteGun"	"whiteface3.bmp"
104	1	"4/27/2016"	"12:22:05"	"GunNeu"	"RightGun"	4	2	1	208	"BlackFace4.bmp"	7	"f"	"slow"	""	NA	"gripstrength.bmp"	1	680	NA	NA	"gripstrength.bmp"	"RunProc"	"TrialProc"	""	"ChunkList"	""	"BlackNeu"	""
104	1	"4/27/2016"	"12:22:05"	"GunNeu"	"RightGun"	4	2	1	209	""	7	"f"	"fast"	""	NA	"giraffe.bmp"	1	495	NA	NA	"giraffe.bmp"	"RunProc"	"TrialProc"	""	"ChunkList"	""	"WhiteNeu"	"whiteface4.bmp"
104	1	"4/27/2016"	"12:22:05"	"GunNeu"	"RightGun"	4	2	1	210	""	7	"j"	"fast"	"WEAPON4.bmp"	NA	""	1	479	NA	NA	"WEAPON4.bmp"	"RunProc"	"TrialProc"	""	"ChunkList"	""	"WhiteGun"	"whiteface3.bmp"
104	1	"4/27/2016"	"12:22:05"	"GunNeu"	"RightGun"	4	2	1	211	"BlackFace2.bmp"	7	"j"	"fast"	"WEAPON3.bmp"	NA	""	1	454	NA	NA	"WEAPON3.bmp"	"RunProc"	"TrialProc"	""	"ChunkList"	""	"BlackGun"	""
104	1	"4/27/2016"	"12:22:05"	"GunNeu"	"RightGun"	4	2	1	212	"BlackFace1.bmp"	7	"f"	"fast"	""	NA	"absneut3.bmp"	1	438	NA	NA	"absneut3.bmp"	"RunProc"	"TrialProc"	""	"ChunkList"	""	"BlackNeu"	""
104	1	"4/27/2016"	"12:22:05"	"GunNeu"	"RightGun"	4	2	1	213	""	7	"f"	"slow"	""	NA	"absneut3.bmp"	1	541	NA	NA	"absneut3.bmp"	"RunProc"	"TrialProc"	""	"ChunkList"	""	"WhiteNeu"	"whiteface2.bmp"
104	1	"4/27/2016"	"12:22:05"	"GunNeu"	"RightGun"	4	2	1	214	"BlackFace2.bmp"	7	"j"	"fast"	"WEAPON4.bmp"	NA	""	1	484	NA	NA	"WEAPON4.bmp"	"RunProc"	"TrialProc"	""	"ChunkList"	""	"BlackGun"	""
104	1	"4/27/2016"	"12:22:05"	"GunNeu"	"RightGun"	4	2	1	215	""	7	"j"	"fast"	"WEAPON2.bmp"	NA	""	0	388	NA	NA	"WEAPON2.bmp"	"RunProc"	"TrialProc"	""	"ChunkList"	""	"WhiteGun"	"whiteface4.bmp"
104	1	"4/27/2016"	"12:22:05"	"GunNeu"	"RightGun"	4	2	1	216	"BlackFace4.bmp"	7	"j"	"fast"	"WEAPON1.bmp"	NA	""	1	403	NA	NA	"WEAPON1.bmp"	"RunProc"	"TrialProc"	""	"ChunkList"	""	"BlackGun"	""
104	1	"4/27/2016"	"12:22:05"	"GunNeu"	"RightGun"	4	2	1	217	""	7	"f"	"slow"	""	NA	"giraffe.bmp"	1	513	NA	NA	"giraffe.bmp"	"RunProc"	"TrialProc"	""	"ChunkList"	""	"WhiteNeu"	"whiteface1.bmp"
104	1	"4/27/2016"	"12:22:05"	"GunNeu"	"RightGun"	4	2	1	218	"BlackFace1.bmp"	7	"j"	"fast"	"WEAPON2.bmp"	NA	""	1	424	NA	NA	"WEAPON2.bmp"	"RunProc"	"TrialProc"	""	"ChunkList"	""	"BlackGun"	""
104	1	"4/27/2016"	"12:22:05"	"GunNeu"	"RightGun"	4	2	1	219	"BlackFace3.bmp"	7	"f"	"fast"	""	NA	"banana.bmp"	0	384	NA	NA	"banana.bmp"	"RunProc"	"TrialProc"	""	"ChunkList"	""	"BlackNeu"	""
104	1	"4/27/2016"	"12:22:05"	"GunNeu"	"RightGun"	4	2	1	220	""	7	"j"	"fast"	"WEAPON4.bmp"	NA	""	0	431	NA	NA	"WEAPON4.bmp"	"RunProc"	"TrialProc"	""	"ChunkList"	""	"WhiteGun"	"whiteface3.bmp"
104	1	"4/27/2016"	"12:22:05"	"GunNeu"	"RightGun"	4	2	1	221	"BlackFace2.bmp"	7	"j"	"fast"	"WEAPON1.bmp"	NA	""	1	438	NA	NA	"WEAPON1.bmp"	"RunProc"	"TrialProc"	""	"ChunkList"	""	"BlackGun"	""
104	1	"4/27/2016"	"12:22:05"	"GunNeu"	"RightGun"	4	2	1	222	"BlackFace3.bmp"	7	"f"	"fast"	""	NA	"gripstrength.bmp"	0	374	NA	NA	"gripstrength.bmp"	"RunProc"	"TrialProc"	""	"ChunkList"	""	"BlackNeu"	""
104	1	"4/27/2016"	"12:22:05"	"GunNeu"	"RightGun"	4	2	1	223	""	7	"f"	"fast"	""	NA	"absneut3.bmp"	1	477	NA	NA	"absneut3.bmp"	"RunProc"	"TrialProc"	""	"ChunkList"	""	"WhiteNeu"	"whiteface2.bmp"
104	1	"4/27/2016"	"12:22:05"	"GunNeu"	"RightGun"	4	2	1	224	"BlackFace4.bmp"	7	"f"	"slow"	""	NA	"banana.bmp"	1	669	NA	NA	"banana.bmp"	"RunProc"	"TrialProc"	""	"ChunkList"	""	"BlackNeu"	""
104	1	"4/27/2016"	"12:22:05"	"GunNeu"	"RightGun"	4	2	1	225	""	7	"f"	"slow"	""	NA	"giraffe.bmp"	1	540	NA	NA	"giraffe.bmp"	"RunProc"	"TrialProc"	""	"ChunkList"	""	"WhiteNeu"	"whiteface4.bmp"
104	1	"4/27/2016"	"12:22:05"	"GunNeu"	"RightGun"	4	2	1	226	"BlackFace1.bmp"	7	"j"	"slow"	"WEAPON3.bmp"	NA	""	1	507	NA	NA	"WEAPON3.bmp"	"RunProc"	"TrialProc"	""	"ChunkList"	""	"BlackGun"	""
104	1	"4/27/2016"	"12:22:05"	"GunNeu"	"RightGun"	4	2	1	227	"BlackFace1.bmp"	7	"f"	"slow"	""	NA	"gripstrength.bmp"	1	579	NA	NA	"gripstrength.bmp"	"RunProc"	"TrialProc"	""	"ChunkList"	""	"BlackNeu"	""
104	1	"4/27/2016"	"12:22:05"	"GunNeu"	"RightGun"	4	2	1	228	""	7	"f"	"fast"	""	NA	"banana.bmp"	1	482	NA	NA	"banana.bmp"	"RunProc"	"TrialProc"	""	"ChunkList"	""	"WhiteNeu"	"whiteface1.bmp"
104	1	"4/27/2016"	"12:22:05"	"GunNeu"	"RightGun"	4	2	1	229	"BlackFace3.bmp"	7	"f"	"slow"	""	NA	"absneut3.bmp"	1	514	NA	NA	"absneut3.bmp"	"RunProc"	"TrialProc"	""	"ChunkList"	""	"BlackNeu"	""
104	1	"4/27/2016"	"12:22:05"	"GunNeu"	"RightGun"	4	2	1	230	""	7	"j"	"slow"	"WEAPON3.bmp"	NA	""	1	521	NA	NA	"WEAPON3.bmp"	"RunProc"	"TrialProc"	""	"ChunkList"	""	"WhiteGun"	"whiteface1.bmp"
104	1	"4/27/2016"	"12:22:05"	"GunNeu"	"RightGun"	4	2	1	231	"BlackFace4.bmp"	7	"f"	"fast"	""	NA	"giraffe.bmp"	1	488	NA	NA	"giraffe.bmp"	"RunProc"	"TrialProc"	""	"ChunkList"	""	"BlackNeu"	""
104	1	"4/27/2016"	"12:22:05"	"GunNeu"	"RightGun"	4	2	1	232	""	7	"j"	"fast"	"WEAPON2.bmp"	NA	""	1	496	NA	NA	"WEAPON2.bmp"	"RunProc"	"TrialProc"	""	"ChunkList"	""	"WhiteGun"	"whiteface3.bmp"
104	1	"4/27/2016"	"12:22:05"	"GunNeu"	"RightGun"	4	2	1	233	""	7	"j"	"fast"	"WEAPON1.bmp"	NA	""	1	470	NA	NA	"WEAPON1.bmp"	"RunProc"	"TrialProc"	""	"ChunkList"	""	"WhiteGun"	"whiteface2.bmp"
104	1	"4/27/2016"	"12:22:05"	"GunNeu"	"RightGun"	4	2	1	234	""	7	"j"	"fast"	"WEAPON4.bmp"	NA	""	1	430	NA	NA	"WEAPON4.bmp"	"RunProc"	"TrialProc"	""	"ChunkList"	""	"WhiteGun"	"whiteface4.bmp"
104	1	"4/27/2016"	"12:22:05"	"GunNeu"	"RightGun"	4	2	1	235	""	7	"j"	"slow"	"WEAPON2.bmp"	NA	""	1	533	NA	NA	"WEAPON2.bmp"	"RunProc"	"TrialProc"	""	"ChunkList"	""	"WhiteGun"	"whiteface4.bmp"
104	1	"4/27/2016"	"12:22:05"	"GunNeu"	"RightGun"	4	2	1	236	""	7	"j"	"fast"	"WEAPON1.bmp"	NA	""	1	388	NA	NA	"WEAPON1.bmp"	"RunProc"	"TrialProc"	""	"ChunkList"	""	"WhiteGun"	"whiteface3.bmp"
104	1	"4/27/2016"	"12:22:05"	"GunNeu"	"RightGun"	4	2	1	237	"BlackFace2.bmp"	7	"j"	"slow"	"WEAPON4.bmp"	NA	""	1	516	NA	NA	"WEAPON4.bmp"	"RunProc"	"TrialProc"	""	"ChunkList"	""	"BlackGun"	""
104	1	"4/27/2016"	"12:22:05"	"GunNeu"	"RightGun"	4	2	1	238	""	7	"f"	"fast"	""	NA	"gripstrength.bmp"	0	291	NA	NA	"gripstrength.bmp"	"RunProc"	"TrialProc"	""	"ChunkList"	""	"WhiteNeu"	"whiteface1.bmp"
104	1	"4/27/2016"	"12:22:05"	"GunNeu"	"RightGun"	4	2	1	239	""	7	"f"	"slow"	""	NA	"absneut3.bmp"	0	531	NA	NA	"absneut3.bmp"	"RunProc"	"TrialProc"	""	"ChunkList"	""	"WhiteNeu"	"whiteface2.bmp"
104	1	"4/27/2016"	"12:22:05"	"GunNeu"	"RightGun"	4	2	1	240	""	7	"f"	"slow"	""	NA	"giraffe.bmp"	1	538	NA	NA	"giraffe.bmp"	"RunProc"	"TrialProc"	""	"ChunkList"	""	"WhiteNeu"	"whiteface3.bmp"
104	1	"4/27/2016"	"12:22:05"	"GunNeu"	"RightGun"	4	2	1	241	""	7	"f"	"slow"	""	NA	"gripstrength.bmp"	0	537	NA	NA	"gripstrength.bmp"	"RunProc"	"TrialProc"	""	"ChunkList"	""	"WhiteNeu"	"whiteface1.bmp"
104	1	"4/27/2016"	"12:22:05"	"GunNeu"	"RightGun"	4	2	1	242	""	7	"j"	"slow"	"WEAPON3.bmp"	NA	""	1	585	NA	NA	"WEAPON3.bmp"	"RunProc"	"TrialProc"	""	"ChunkList"	""	"WhiteGun"	"whiteface4.bmp"
104	1	"4/27/2016"	"12:22:05"	"GunNeu"	"RightGun"	4	2	1	243	""	7	"f"	"fast"	""	NA	"banana.bmp"	1	464	NA	NA	"banana.bmp"	"RunProc"	"TrialProc"	""	"ChunkList"	""	"WhiteNeu"	"whiteface2.bmp"
12	1	"11/30/2015"	"15:14:01"	"GunNeu"	"RightGun"	4	2	5	1	"BlackFace2.bmp"	1	"j"	"slow"	"WEAPON4.bmp"	NA	""	1	734	NA	NA	"WEAPON4.bmp"	"RunProc"	"TrialProc"	""	"ChunkList"	""	"BlackGun"	""
12	1	"11/30/2015"	"15:14:01"	"GunNeu"	"RightGun"	4	2	5	2	""	1	"j"	"fast"	"WEAPON3.bmp"	NA	""	1	398	NA	NA	"WEAPON3.bmp"	"RunProc"	"TrialProc"	""	"ChunkList"	""	"WhiteGun"	"whiteface2.bmp"
12	1	"11/30/2015"	"15:14:01"	"GunNeu"	"RightGun"	4	2	5	3	""	1	"j"	"fast"	"WEAPON2.bmp"	NA	""	1	477	NA	NA	"WEAPON2.bmp"	"RunProc"	"TrialProc"	""	"ChunkList"	""	"WhiteGun"	"whiteface1.bmp"
12	1	"11/30/2015"	"15:14:01"	"GunNeu"	"RightGun"	4	2	5	4	""	1	"f"	"slow"	""	NA	"absneut3.bmp"	1	581	NA	NA	"absneut3.bmp"	"RunProc"	"TrialProc"	""	"ChunkList"	""	"WhiteNeu"	"whiteface3.bmp"
12	1	"11/30/2015"	"15:14:01"	"GunNeu"	"RightGun"	4	2	5	5	""	1	"f"	"fast"	""	NA	"giraffe.bmp"	1	292	NA	NA	"giraffe.bmp"	"RunProc"	"TrialProc"	""	"ChunkList"	""	"WhiteNeu"	"whiteface4.bmp"
12	1	"11/30/2015"	"15:14:01"	"GunNeu"	"RightGun"	4	2	5	6	""	1	"j"	"fast"	"WEAPON1.bmp"	NA	""	1	307	NA	NA	"WEAPON1.bmp"	"RunProc"	"TrialProc"	""	"ChunkList"	""	"WhiteGun"	"whiteface3.bmp"
12	1	"11/30/2015"	"15:14:01"	"GunNeu"	"RightGun"	4	2	5	7	""	1	"j"	"fast"	"WEAPON1.bmp"	NA	""	0	379	NA	NA	"WEAPON1.bmp"	"RunProc"	"TrialProc"	""	"ChunkList"	""	"WhiteGun"	"whiteface4.bmp"
12	1	"11/30/2015"	"15:14:01"	"GunNeu"	"RightGun"	4	2	5	8	""	1	"j"	"slow"	"WEAPON3.bmp"	NA	""	1	538	NA	NA	"WEAPON3.bmp"	"RunProc"	"TrialProc"	""	"ChunkList"	""	"WhiteGun"	"whiteface2.bmp"
12	1	"11/30/2015"	"15:14:01"	"GunNeu"	"RightGun"	4	2	5	9	"BlackFace3.bmp"	1	"j"	"fast"	"WEAPON2.bmp"	NA	""	1	217	NA	NA	"WEAPON2.bmp"	"RunProc"	"TrialProc"	""	"ChunkList"	""	"BlackGun"	""
12	1	"11/30/2015"	"15:14:01"	"GunNeu"	"RightGun"	4	2	5	10	"BlackFace4.bmp"	1	"f"	"slow"	""	NA	"banana.bmp"	1	553	NA	NA	"banana.bmp"	"RunProc"	"TrialProc"	""	"ChunkList"	""	"BlackNeu"	""
12	1	"11/30/2015"	"15:14:01"	"GunNeu"	"RightGun"	4	2	5	11	""	1	"f"	"fast"	""	NA	"gripstrength.bmp"	0	288	NA	NA	"gripstrength.bmp"	"RunProc"	"TrialProc"	""	"ChunkList"	""	"WhiteNeu"	"whiteface1.bmp"
12	1	"11/30/2015"	"15:14:01"	"GunNeu"	"RightGun"	4	2	5	12	"BlackFace1.bmp"	1	"j"	"slow"	"WEAPON4.bmp"	NA	""	1	503	NA	NA	"WEAPON4.bmp"	"RunProc"	"TrialProc"	""	"ChunkList"	""	"BlackGun"	""
12	1	"11/30/2015"	"15:14:01"	"GunNeu"	"RightGun"	4	2	5	13	"BlackFace3.bmp"	1	"f"	"slow"	""	NA	"banana.bmp"	1	510	NA	NA	"banana.bmp"	"RunProc"	"TrialProc"	""	"ChunkList"	""	"BlackNeu"	""
12	1	"11/30/2015"	"15:14:01"	"GunNeu"	"RightGun"	4	2	5	14	"BlackFace2.bmp"	1	"j"	"fast"	"WEAPON1.bmp"	NA	""	1	485	NA	NA	"WEAPON1.bmp"	"RunProc"	"TrialProc"	""	"ChunkList"	""	"BlackGun"	""
12	1	"11/30/2015"	"15:14:01"	"GunNeu"	"RightGun"	4	2	5	15	"BlackFace4.bmp"	1	"j"	"fast"	"WEAPON3.bmp"	NA	""	0	229	NA	NA	"WEAPON3.bmp"	"RunProc"	"TrialProc"	""	"ChunkList"	""	"BlackGun"	""
12	1	"11/30/2015"	"15:14:01"	"GunNeu"	"RightGun"	4	2	5	16	"BlackFace1.bmp"	1	"f"	"slow"	""	NA	"gripstrength.bmp"	1	660	NA	NA	"gripstrength.bmp"	"RunProc"	"TrialProc"	""	"ChunkList"	""	"BlackNeu"	""
12	1	"11/30/2015"	"15:14:01"	"GunNeu"	"RightGun"	4	2	5	17	"BlackFace2.bmp"	1	"f"	"slow"	""	NA	"giraffe.bmp"	1	507	NA	NA	"giraffe.bmp"	"RunProc"	"TrialProc"	""	"ChunkList"	""	"BlackNeu"	""
12	1	"11/30/2015"	"15:14:01"	"GunNeu"	"RightGun"	4	2	5	18	""	1	"j"	"fast"	"WEAPON2.bmp"	NA	""	0	338	NA	NA	"WEAPON2.bmp"	"RunProc"	"TrialProc"	""	"ChunkList"	""	"WhiteGun"	"whiteface4.bmp"
12	1	"11/30/2015"	"15:14:01"	"GunNeu"	"RightGun"	4	2	5	19	""	1	"j"	"slow"	"WEAPON4.bmp"	NA	""	1	626	NA	NA	"WEAPON4.bmp"	"RunProc"	"TrialProc"	""	"ChunkList"	""	"WhiteGun"	"whiteface1.bmp"
12	1	"11/30/2015"	"15:14:01"	"GunNeu"	"RightGun"	4	2	5	20	""	1	"j"	"fast"	"WEAPON4.bmp"	NA	""	1	345	NA	NA	"WEAPON4.bmp"	"RunProc"	"TrialProc"	""	"ChunkList"	""	"WhiteGun"	"whiteface2.bmp"
12	1	"11/30/2015"	"15:14:01"	"GunNeu"	"RightGun"	4	2	5	21	"BlackFace4.bmp"	1	"j"	"fast"	"WEAPON1.bmp"	NA	""	1	416	NA	NA	"WEAPON1.bmp"	"RunProc"	"TrialProc"	""	"ChunkList"	""	"BlackGun"	""
12	1	"11/30/2015"	"15:14:01"	"GunNeu"	"RightGun"	4	2	5	22	"BlackFace3.bmp"	1	"j"	"fast"	"WEAPON2.bmp"	NA	""	1	360	NA	NA	"WEAPON2.bmp"	"RunProc"	"TrialProc"	""	"ChunkList"	""	"BlackGun"	""
12	1	"11/30/2015"	"15:14:01"	"GunNeu"	"RightGun"	4	2	5	23	""	1	"f"	"fast"	""	NA	"absneut3.bmp"	0	319	NA	NA	"absneut3.bmp"	"RunProc"	"TrialProc"	""	"ChunkList"	""	"WhiteNeu"	"whiteface3.bmp"
12	1	"11/30/2015"	"15:14:01"	"GunNeu"	"RightGun"	4	2	5	24	"BlackFace1.bmp"	1	"f"	"slow"	""	NA	"absneut3.bmp"	1	662	NA	NA	"absneut3.bmp"	"RunProc"	"TrialProc"	""	"ChunkList"	""	"BlackNeu"	""
12	1	"11/30/2015"	"15:14:01"	"GunNeu"	"RightGun"	4	2	5	25	""	1	"f"	"slow"	""	NA	"gripstrength.bmp"	1	645	NA	NA	"gripstrength.bmp"	"RunProc"	"TrialProc"	""	"ChunkList"	""	"WhiteNeu"	"whiteface2.bmp"
12	1	"11/30/2015"	"15:14:01"	"GunNeu"	"RightGun"	4	2	5	26	""	1	"f"	"slow"	""	NA	"giraffe.bmp"	0	0	NA	NA	"giraffe.bmp"	"RunProc"	"TrialProc"	""	"ChunkList"	""	"WhiteNeu"	"whiteface3.bmp"
12	1	"11/30/2015"	"15:14:01"	"GunNeu"	"RightGun"	4	2	5	27	"BlackFace1.bmp"	1	"f"	"slow"	""	NA	"banana.bmp"	0	0	NA	NA	"banana.bmp"	"RunProc"	"TrialProc"	""	"ChunkList"	""	"BlackNeu"	""
12	1	"11/30/2015"	"15:14:01"	"GunNeu"	"RightGun"	4	2	5	28	""	1	"f"	"slow"	""	NA	"giraffe.bmp"	0	0	NA	NA	"giraffe.bmp"	"RunProc"	"TrialProc"	""	"ChunkList"	""	"WhiteNeu"	"whiteface4.bmp"
12	1	"11/30/2015"	"15:14:01"	"GunNeu"	"RightGun"	4	2	5	29	"BlackFace4.bmp"	1	"f"	"slow"	""	NA	"gripstrength.bmp"	1	587	NA	NA	"gripstrength.bmp"	"RunProc"	"TrialProc"	""	"ChunkList"	""	"BlackNeu"	""
12	1	"11/30/2015"	"15:14:01"	"GunNeu"	"RightGun"	4	2	5	30	""	1	"f"	"fast"	""	NA	"absneut3.bmp"	1	402	NA	NA	"absneut3.bmp"	"RunProc"	"TrialProc"	""	"ChunkList"	""	"WhiteNeu"	"whiteface1.bmp"
12	1	"11/30/2015"	"15:14:01"	"GunNeu"	"RightGun"	4	2	5	31	""	1	"f"	"slow"	""	NA	"banana.bmp"	1	521	NA	NA	"banana.bmp"	"RunProc"	"TrialProc"	""	"ChunkList"	""	"WhiteNeu"	"whiteface4.bmp"
12	1	"11/30/2015"	"15:14:01"	"GunNeu"	"RightGun"	4	2	5	32	""	1	"f"	"fast"	""	NA	"giraffe.bmp"	1	455	NA	NA	"giraffe.bmp"	"RunProc"	"TrialProc"	""	"ChunkList"	""	"WhiteNeu"	"whiteface3.bmp"
12	1	"11/30/2015"	"15:14:01"	"GunNeu"	"RightGun"	4	2	5	33	""	1	"f"	"fast"	""	NA	"banana.bmp"	1	471	NA	NA	"banana.bmp"	"RunProc"	"TrialProc"	""	"ChunkList"	""	"WhiteNeu"	"whiteface2.bmp"
12	1	"11/30/2015"	"15:14:01"	"GunNeu"	"RightGun"	4	2	5	34	""	1	"j"	"fast"	"WEAPON3.bmp"	NA	""	0	382	NA	NA	"WEAPON3.bmp"	"RunProc"	"TrialProc"	""	"ChunkList"	""	"WhiteGun"	"whiteface1.bmp"
12	1	"11/30/2015"	"15:14:01"	"GunNeu"	"RightGun"	4	2	5	35	"BlackFace3.bmp"	1	"j"	"fast"	"WEAPON4.bmp"	NA	""	1	357	NA	NA	"WEAPON4.bmp"	"RunProc"	"TrialProc"	""	"ChunkList"	""	"BlackGun"	""
12	1	"11/30/2015"	"15:14:01"	"GunNeu"	"RightGun"	4	2	5	36	"BlackFace2.bmp"	1	"f"	"fast"	""	NA	"absneut3.bmp"	1	405	NA	NA	"absneut3.bmp"	"RunProc"	"TrialProc"	""	"ChunkList"	""	"BlackNeu"	""
12	1	"11/30/2015"	"15:14:01"	"GunNeu"	"RightGun"	4	2	5	37	"BlackFace2.bmp"	1	"j"	"fast"	"WEAPON1.bmp"	NA	""	1	356	NA	NA	"WEAPON1.bmp"	"RunProc"	"TrialProc"	""	"ChunkList"	""	"BlackGun"	""
12	1	"11/30/2015"	"15:14:01"	"GunNeu"	"RightGun"	4	2	5	38	"BlackFace3.bmp"	1	"j"	"fast"	"WEAPON3.bmp"	NA	""	1	299	NA	NA	"WEAPON3.bmp"	"RunProc"	"TrialProc"	""	"ChunkList"	""	"BlackGun"	""
12	1	"11/30/2015"	"15:14:01"	"GunNeu"	"RightGun"	4	2	5	39	""	1	"j"	"fast"	"WEAPON2.bmp"	NA	""	1	338	NA	NA	"WEAPON2.bmp"	"RunProc"	"TrialProc"	""	"ChunkList"	""	"WhiteGun"	"whiteface2.bmp"
12	1	"11/30/2015"	"15:14:01"	"GunNeu"	"RightGun"	4	2	5	40	"BlackFace4.bmp"	1	"f"	"slow"	""	NA	"gripstrength.bmp"	1	530	NA	NA	"gripstrength.bmp"	"RunProc"	"TrialProc"	""	"ChunkList"	""	"BlackNeu"	""
12	1	"11/30/2015"	"15:14:01"	"GunNeu"	"RightGun"	4	2	5	41	"BlackFace1.bmp"	1	"f"	"fast"	""	NA	"banana.bmp"	1	489	NA	NA	"banana.bmp"	"RunProc"	"TrialProc"	""	"ChunkList"	""	"BlackNeu"	""
12	1	"11/30/2015"	"15:14:01"	"GunNeu"	"RightGun"	4	2	5	42	""	1	"j"	"fast"	"WEAPON3.bmp"	NA	""	1	360	NA	NA	"WEAPON3.bmp"	"RunProc"	"TrialProc"	""	"ChunkList"	""	"WhiteGun"	"whiteface4.bmp"
12	1	"11/30/2015"	"15:14:01"	"GunNeu"	"RightGun"	4	2	5	43	""	1	"f"	"fast"	""	NA	"gripstrength.bmp"	0	272	NA	NA	"gripstrength.bmp"	"RunProc"	"TrialProc"	""	"ChunkList"	""	"WhiteNeu"	"whiteface1.bmp"
